% RMS fitting errors for the 48 training profiles at 6 angles.
% September 2002 "m135f" AIRS-RTA
%
% These errors are the root mean square difference in the BT
% (brightness temperature) computed using the regression
% training data (convolved layer-to-space transmittances),
% and BT computed using the fast model.  For these calculations
% we used surface emissivity=unity and reflectivity=zero.
%
%  ID    freq     RMS
%----  --------  -----
    1   649.612  0.019
    2   649.851  0.017
    3   650.089  0.019
    4   650.328  0.023
    5   650.567  0.020
    6   650.806  0.015
    7   651.046  0.018
    8   651.285  0.013
    9   651.525  0.008
   10   651.765  0.017
   11   652.005  0.016
   12   652.245  0.010
   13   652.486  0.013
   14   652.727  0.020
   15   652.968  0.013
   16   653.209  0.013
   17   653.450  0.016
   18   653.691  0.012
   19   653.933  0.011
   20   654.175  0.015
   21   654.417  0.008
   22   654.659  0.010
   23   654.901  0.016
   24   655.144  0.016
   25   655.387  0.008
   26   655.630  0.014
   27   655.873  0.012
   28   656.116  0.009
   29   656.360  0.016
   30   656.604  0.016
   31   656.848  0.011
   32   657.092  0.010
   33   657.336  0.015
   34   657.581  0.010
   35   657.825  0.014
   36   658.070  0.018
   37   658.315  0.012
   38   658.561  0.009
   39   658.806  0.011
   40   659.052  0.009
   41   659.298  0.014
   42   659.544  0.018
   43   659.790  0.015
   44   660.036  0.010
   45   660.283  0.012
   46   660.530  0.014
   47   660.777  0.010
   48   661.024  0.017
   49   661.272  0.017
   50   661.519  0.011
   51   661.767  0.012
   52   662.015  0.015
   53   662.263  0.019
   54   662.512  0.024
   55   662.761  0.016
   56   663.009  0.016
   57   663.258  0.019
   58   663.508  0.023
   59   663.757  0.024
   60   664.007  0.017
   61   664.256  0.018
   62   664.506  0.015
   63   664.757  0.018
   64   665.007  0.015
   65   665.258  0.017
   66   665.508  0.015
   67   665.760  0.013
   68   666.011  0.010
   69   666.262  0.006
   70   666.514  0.009
   71   666.766  0.013
   72   667.018  0.009
   73   667.270  0.033
   74   667.522  0.024
   75   667.775  0.027
   76   668.028  0.033
   77   668.281  0.033
   78   668.534  0.037
   79   668.787  0.036
   80   669.041  0.029
   81   669.295  0.033
   82   669.549  0.029
   83   669.803  0.026
   84   670.057  0.033
   85   670.312  0.032
   86   670.567  0.028
   87   670.822  0.026
   88   671.077  0.023
   89   671.333  0.024
   90   671.588  0.023
   91   671.844  0.019
   92   672.100  0.014
   93   672.357  0.011
   94   672.613  0.018
   95   672.870  0.023
   96   673.127  0.017
   97   673.384  0.010
   98   673.641  0.012
   99   673.899  0.008
  100   674.156  0.012
  101   674.414  0.020
  102   674.672  0.018
  103   674.931  0.013
  104   675.189  0.009
  105   675.448  0.009
  106   675.707  0.012
  107   675.966  0.018
  108   676.226  0.016
  109   676.485  0.012
  110   676.745  0.009
  111   677.005  0.008
  112   677.265  0.013
  113   677.526  0.019
  114   677.786  0.016
  115   678.047  0.012
  116   678.308  0.011
  117   678.569  0.011
  118   678.831  0.014
  119   679.093  0.021
  120   679.355  0.022
  121   679.617  0.024
  122   679.879  0.010
  123   680.141  0.010
  124   680.404  0.011
  125   680.667  0.015
  126   680.930  0.017
  127   681.194  0.014
  128   681.457  0.014
  129   681.721  0.014
  130   681.985  0.010
  131   687.601  0.014
  132   687.871  0.010
  133   688.140  0.018
  134   688.410  0.020
  135   688.680  0.029
  136   688.950  0.040
  137   689.220  0.039
  138   689.491  0.035
  139   689.762  0.030
  140   690.033  0.019
  141   690.304  0.017
  142   690.576  0.020
  143   690.847  0.019
  144   691.119  0.012
  145   691.391  0.017
  146   691.664  0.014
  147   691.936  0.017
  148   692.209  0.021
  149   692.482  0.017
  150   692.755  0.012
  151   693.029  0.019
  152   693.302  0.009
  153   693.576  0.011
  154   693.851  0.017
  155   694.125  0.022
  156   694.399  0.010
  157   694.674  0.013
  158   694.949  0.010
  159   695.225  0.014
  160   695.500  0.021
  161   695.776  0.022
  162   696.052  0.015
  163   696.328  0.012
  164   696.604  0.027
  165   696.881  0.015
  166   697.158  0.028
  167   697.435  0.026
  168   697.712  0.018
  169   697.990  0.021
  170   698.267  0.015
  171   698.545  0.018
  172   698.823  0.025
  173   699.102  0.029
  174   699.381  0.015
  175   699.659  0.010
  176   699.939  0.012
  177   700.218  0.013
  178   700.497  0.037
  179   700.777  0.047
  180   701.057  0.019
  181   701.338  0.019
  182   701.618  0.016
  183   701.899  0.037
  184   702.180  0.036
  185   702.461  0.028
  186   702.742  0.019
  187   703.024  0.027
  188   703.306  0.019
  189   703.588  0.033
  190   703.870  0.052
  191   704.153  0.089
  192   704.436  0.053
  193   704.719  0.043
  194   705.002  0.061
  195   705.285  0.049
  196   705.569  0.043
  197   705.853  0.036
  198   706.137  0.024
  199   706.422  0.051
  200   706.706  0.051
  201   706.991  0.041
  202   707.276  0.033
  203   707.562  0.048
  204   707.847  0.042
  205   708.133  0.064
  206   708.419  0.069
  207   708.706  0.082
  208   708.992  0.077
  209   709.279  0.045
  210   709.566  0.056
  211   709.853  0.074
  212   710.141  0.073
  213   710.428  0.060
  214   710.716  0.057
  215   711.005  0.039
  216   711.293  0.050
  217   711.582  0.080
  218   711.871  0.087
  219   712.160  0.033
  220   712.449  0.034
  221   712.739  0.049
  222   713.029  0.089
  223   713.319  0.078
  224   713.609  0.060
  225   713.900  0.061
  226   714.191  0.050
  227   714.482  0.075
  228   714.773  0.075
  229   715.065  0.066
  230   715.356  0.080
  231   715.648  0.066
  232   715.941  0.033
  233   716.233  0.063
  234   716.526  0.056
  235   716.819  0.060
  236   717.112  0.191
  237   717.406  0.051
  238   717.700  0.084
  239   717.994  0.095
  240   718.288  0.071
  241   718.582  0.058
  242   718.877  0.055
  243   719.172  0.045
  244   719.467  0.044
  245   719.763  0.048
  246   720.058  0.041
  247   720.354  0.044
  248   720.651  0.045
  249   720.947  0.030
  250   721.244  0.050
  251   721.541  0.061
  252   721.838  0.027
  253   722.135  0.053
  254   722.433  0.083
  255   722.731  0.041
  256   723.029  0.045
  257   723.328  0.030
  258   723.626  0.066
  259   723.925  0.070
  260   724.224  0.049
  261   724.524  0.036
  262   724.823  0.068
  263   725.123  0.062
  264   725.424  0.147
  265   725.724  0.115
  266   726.025  0.018
  267   726.326  0.026
  268   726.627  0.028
  269   726.928  0.052
  270   727.230  0.057
  271   727.532  0.024
  272   727.834  0.014
  273   728.137  0.027
  274   728.439  0.060
  275   728.055  0.024
  276   728.357  0.053
  277   728.660  0.054
  278   728.963  0.095
  279   729.266  0.081
  280   729.569  0.066
  281   729.873  0.096
  282   730.177  0.123
  283   730.481  0.178
  284   730.785  0.094
  285   731.090  0.084
  286   731.395  0.070
  287   731.700  0.059
  288   732.005  0.046
  289   732.311  0.025
  290   732.617  0.023
  291   732.923  0.069
  292   733.229  0.060
  293   733.536  0.029
  294   733.843  0.029
  295   734.150  0.026
  296   734.458  0.092
  297   734.765  0.054
  298   735.073  0.026
  299   735.381  0.049
  300   735.690  0.021
  301   735.999  0.069
  302   736.308  0.062
  303   736.617  0.047
  304   736.926  0.023
  305   737.236  0.023
  306   737.546  0.059
  307   737.856  0.092
  308   738.167  0.031
  309   738.477  0.023
  310   738.788  0.025
  311   739.100  0.070
  312   739.411  0.104
  313   739.723  0.040
  314   740.035  0.032
  315   740.347  0.073
  316   740.660  0.086
  317   740.973  0.054
  318   741.286  0.121
  319   741.599  0.279
  320   741.913  0.196
  321   742.227  0.079
  322   742.541  0.067
  323   742.855  0.037
  324   743.170  0.018
  325   743.485  0.058
  326   743.800  0.118
  327   744.116  0.120
  328   744.431  0.046
  329   744.747  0.038
  330   745.064  0.084
  331   745.380  0.069
  332   745.697  0.086
  333   746.014  0.026
  334   746.331  0.015
  335   746.649  0.066
  336   746.967  0.069
  337   747.285  0.091
  338   747.603  0.029
  339   747.922  0.036
  340   748.241  0.075
  341   748.560  0.068
  342   748.879  0.054
  343   749.199  0.017
  344   749.519  0.042
  345   749.839  0.089
  346   750.160  0.079
  347   750.481  0.020
  348   750.802  0.038
  349   751.123  0.077
  350   751.445  0.071
  351   751.767  0.068
  352   752.089  0.042
  353   752.411  0.058
  354   752.734  0.082
  355   753.057  0.062
  356   753.380  0.036
  357   753.703  0.056
  358   754.027  0.081
  359   754.351  0.074
  360   754.676  0.091
  361   755.000  0.049
  362   755.325  0.016
  363   755.650  0.073
  364   755.976  0.081
  365   756.301  0.033
  366   756.627  0.019
  367   756.954  0.039
  368   757.280  0.086
  369   757.607  0.065
  370   757.934  0.039
  371   758.261  0.010
  372   758.589  0.059
  373   758.917  0.076
  374   759.245  0.034
  375   759.573  0.007
  376   759.902  0.023
  377   760.231  0.083
  378   760.561  0.068
  379   760.890  0.014
  380   761.220  0.013
  381   761.550  0.051
  382   761.880  0.080
  383   762.211  0.029
  384   762.542  0.007
  385   762.873  0.027
  386   763.205  0.067
  387   763.537  0.051
  388   763.869  0.008
  389   764.201  0.007
  390   764.534  0.043
  391   764.867  0.058
  392   765.200  0.017
  393   765.534  0.006
  394   765.867  0.016
  395   766.201  0.028
  396   766.536  0.025
  397   766.870  0.015
  398   767.205  0.019
  399   767.541  0.023
  400   767.876  0.019
  401   768.212  0.014
  402   768.548  0.016
  403   768.884  0.022
  404   769.221  0.019
  405   769.558  0.015
  406   769.895  0.020
  407   770.233  0.022
  408   770.570  0.012
  409   770.909  0.013
  410   771.247  0.010
  411   771.586  0.007
  412   771.925  0.008
  413   772.264  0.010
  414   772.603  0.011
  415   772.943  0.008
  416   773.283  0.007
  417   773.624  0.006
  418   773.964  0.009
  419   774.305  0.009
  420   774.647  0.010
  421   774.988  0.011
  422   775.330  0.014
  423   775.672  0.019
  424   776.015  0.015
  425   776.357  0.013
  426   776.700  0.019
  427   777.044  0.022
  428   777.387  0.013
  429   777.731  0.009
  430   778.076  0.010
  431   778.420  0.009
  432   778.765  0.008
  433   779.110  0.017
  434   779.455  0.011
  435   779.801  0.006
  436   780.147  0.006
  437   780.493  0.007
  438   780.840  0.006
  439   781.187  0.004
  440   781.534  0.005
  441   781.882  0.008
  442   789.263  0.003
  443   789.616  0.004
  444   789.971  0.004
  445   790.325  0.003
  446   790.680  0.003
  447   791.035  0.018
  448   791.390  0.094
  449   791.745  0.075
  450   792.101  0.036
  451   792.457  0.017
  452   792.814  0.009
  453   793.171  0.008
  454   793.528  0.008
  455   793.885  0.016
  456   794.243  0.011
  457   794.601  0.008
  458   794.959  0.007
  459   795.318  0.010
  460   795.677  0.022
  461   796.036  0.019
  462   796.396  0.010
  463   796.756  0.007
  464   797.116  0.007
  465   797.477  0.011
  466   797.837  0.009
  467   798.199  0.026
  468   798.560  0.023
  469   798.922  0.019
  470   799.284  0.012
  471   799.646  0.007
  472   800.009  0.007
  473   800.372  0.005
  474   800.735  0.003
  475   801.099  0.004
  476   801.463  0.007
  477   801.827  0.007
  478   802.192  0.006
  479   802.557  0.008
  480   802.922  0.015
  481   803.288  0.019
  482   803.654  0.014
  483   804.020  0.008
  484   804.386  0.007
  485   804.753  0.008
  486   805.120  0.004
  487   805.488  0.005
  488   805.856  0.007
  489   806.224  0.009
  490   806.592  0.005
  491   806.961  0.004
  492   807.330  0.004
  493   807.699  0.007
  494   808.069  0.017
  495   808.439  0.009
  496   808.809  0.005
  497   809.180  0.005
  498   809.551  0.005
  499   809.922  0.002
  500   810.294  0.002
  501   810.666  0.004
  502   811.038  0.004
  503   811.411  0.002
  504   811.784  0.002
  505   812.157  0.003
  506   812.531  0.004
  507   812.905  0.003
  508   813.279  0.005
  509   813.654  0.009
  510   814.029  0.011
  511   814.404  0.013
  512   814.779  0.011
  513   815.155  0.007
  514   815.532  0.005
  515   815.908  0.004
  516   816.285  0.003
  517   816.662  0.003
  518   817.040  0.003
  519   817.418  0.003
  520   817.796  0.004
  521   818.174  0.004
  522   818.553  0.004
  523   818.933  0.005
  524   819.312  0.005
  525   819.692  0.005
  526   820.072  0.005
  527   820.453  0.005
  528   820.834  0.003
  529   821.215  0.004
  530   821.596  0.003
  531   821.978  0.004
  532   822.361  0.005
  533   822.743  0.005
  534   823.126  0.005
  535   823.509  0.005
  536   823.893  0.005
  537   824.277  0.005
  538   824.661  0.005
  539   825.046  0.007
  540   825.431  0.006
  541   825.816  0.004
  542   826.202  0.004
  543   826.587  0.005
  544   826.974  0.007
  545   827.360  0.008
  546   827.747  0.010
  547   828.135  0.006
  548   828.522  0.005
  549   828.910  0.004
  550   829.299  0.004
  551   829.687  0.004
  552   830.076  0.003
  553   830.466  0.004
  554   830.856  0.003
  555   831.246  0.003
  556   831.636  0.003
  557   832.027  0.003
  558   832.418  0.003
  559   832.809  0.003
  560   833.201  0.002
  561   833.593  0.002
  562   833.986  0.002
  563   834.379  0.002
  564   834.772  0.003
  565   835.166  0.004
  566   835.559  0.006
  567   835.954  0.004
  568   836.348  0.002
  569   836.743  0.002
  570   837.139  0.002
  571   837.534  0.002
  572   837.930  0.002
  573   838.327  0.002
  574   838.723  0.002
  575   839.120  0.003
  576   839.518  0.008
  577   839.916  0.012
  578   840.314  0.010
  579   840.712  0.006
  580   841.111  0.005
  581   841.510  0.006
  582   841.910  0.004
  583   842.310  0.003
  584   842.710  0.001
  585   843.111  0.001
  586   843.512  0.001
  587   843.913  0.001
  588   844.315  0.001
  589   844.717  0.001
  590   845.119  0.001
  591   845.522  0.003
  592   845.925  0.003
  593   846.329  0.001
  594   846.732  0.001
  595   847.137  0.001
  596   847.541  0.001
  597   847.946  0.001
  598   848.352  0.001
  599   848.757  0.002
  600   849.163  0.007
  601   849.570  0.011
  602   849.977  0.008
  603   850.384  0.003
  604   850.791  0.003
  605   851.199  0.004
  606   851.607  0.004
  607   852.016  0.009
  608   852.425  0.014
  609   851.490  0.004
  610   851.797  0.005
  611   852.104  0.010
  612   852.411  0.015
  613   852.718  0.017
  614   853.026  0.013
  615   853.334  0.009
  616   853.642  0.008
  617   853.950  0.008
  618   854.259  0.011
  619   854.568  0.017
  620   854.877  0.012
  621   855.186  0.007
  622   855.495  0.004
  623   855.805  0.003
  624   856.115  0.002
  625   856.426  0.002
  626   856.736  0.001
  627   857.047  0.001
  628   857.358  0.001
  629   857.669  0.001
  630   857.981  0.002
  631   858.292  0.005
  632   858.604  0.008
  633   858.917  0.003
  634   859.229  0.003
  635   859.542  0.004
  636   859.855  0.004
  637   860.168  0.002
  638   860.482  0.001
  639   860.795  0.001
  640   861.109  0.001
  641   861.424  0.001
  642   861.738  0.001
  643   862.053  0.001
  644   862.368  0.001
  645   862.683  0.001
  646   862.998  0.001
  647   863.314  0.001
  648   863.630  0.001
  649   863.946  0.001
  650   864.263  0.002
  651   864.579  0.005
  652   864.896  0.008
  653   865.214  0.011
  654   865.531  0.012
  655   865.849  0.007
  656   866.167  0.003
  657   866.485  0.001
  658   866.803  0.001
  659   867.122  0.001
  660   867.441  0.001
  661   867.760  0.001
  662   868.080  0.001
  663   868.399  0.001
  664   868.719  0.001
  665   869.040  0.001
  666   869.360  0.001
  667   869.681  0.001
  668   870.002  0.001
  669   870.323  0.001
  670   870.645  0.003
  671   870.966  0.009
  672   871.288  0.012
  673   871.611  0.008
  674   871.933  0.002
  675   872.256  0.001
  676   872.579  0.001
  677   872.902  0.001
  678   873.226  0.001
  679   873.550  0.001
  680   873.874  0.001
  681   874.198  0.001
  682   874.523  0.001
  683   874.847  0.001
  684   875.172  0.001
  685   875.498  0.001
  686   875.823  0.001
  687   876.149  0.001
  688   876.475  0.001
  689   876.802  0.001
  690   877.128  0.001
  691   877.455  0.001
  692   877.783  0.002
  693   878.110  0.007
  694   878.438  0.011
  695   878.766  0.009
  696   879.094  0.004
  697   879.422  0.002
  698   879.751  0.001
  699   880.080  0.001
  700   880.409  0.001
  701   880.739  0.006
  702   881.069  0.004
  703   881.399  0.003
  704   881.729  0.001
  705   882.060  0.001
  706   882.390  0.002
  707   882.721  0.004
  708   883.053  0.008
  709   883.384  0.009
  710   883.716  0.010
  711   884.049  0.009
  712   884.381  0.005
  713   884.714  0.002
  714   885.047  0.001
  715   885.380  0.001
  716   885.713  0.001
  717   886.047  0.001
  718   886.381  0.001
  719   886.715  0.009
  720   887.050  0.009
  721   887.385  0.009
  722   887.720  0.007
  723   888.055  0.003
  724   888.391  0.010
  725   888.727  0.011
  726   889.063  0.006
  727   889.399  0.002
  728   889.736  0.006
  729   890.073  0.007
  730   890.410  0.007
  731   890.748  0.002
  732   891.086  0.006
  733   891.424  0.007
  734   891.762  0.003
  735   892.101  0.001
  736   892.440  0.001
  737   892.779  0.001
  738   893.118  0.001
  739   893.458  0.001
  740   893.798  0.001
  741   894.138  0.001
  742   894.479  0.001
  743   894.820  0.001
  744   895.161  0.001
  745   895.502  0.001
  746   895.844  0.001
  747   896.185  0.003
  748   896.528  0.004
  749   896.870  0.002
  750   897.213  0.002
  751   897.556  0.008
  752   897.899  0.007
  753   898.243  0.002
  754   898.586  0.001
  755   898.931  0.001
  756   899.275  0.001
  757   899.620  0.001
  758   899.965  0.001
  759   900.310  0.001
  760   900.655  0.001
  761   901.001  0.001
  762   901.347  0.001
  763   901.694  0.001
  764   902.040  0.001
  765   902.387  0.002
  766   902.734  0.002
  767   903.082  0.001
  768   903.429  0.001
  769   903.778  0.001
  770   911.235  0.003
  771   911.590  0.002
  772   911.945  0.001
  773   912.301  0.001
  774   912.656  0.001
  775   913.012  0.001
  776   913.369  0.002
  777   913.725  0.007
  778   914.082  0.009
  779   914.439  0.006
  780   914.796  0.004
  781   915.154  0.002
  782   915.512  0.001
  783   915.870  0.001
  784   916.229  0.001
  785   916.588  0.001
  786   916.947  0.001
  787   917.306  0.001
  788   917.666  0.001
  789   918.026  0.004
  790   918.386  0.008
  791   918.747  0.006
  792   919.108  0.002
  793   919.469  0.001
  794   919.830  0.001
  795   920.192  0.001
  796   920.554  0.002
  797   920.917  0.005
  798   921.279  0.009
  799   921.642  0.011
  800   922.005  0.014
  801   922.369  0.013
  802   922.733  0.005
  803   923.097  0.003
  804   923.461  0.002
  805   923.826  0.001
  806   924.191  0.001
  807   924.556  0.007
  808   924.922  0.011
  809   925.288  0.010
  810   925.654  0.002
  811   926.021  0.001
  812   926.387  0.001
  813   926.754  0.002
  814   927.122  0.002
  815   927.490  0.001
  816   927.858  0.001
  817   928.226  0.002
  818   928.594  0.007
  819   928.963  0.007
  820   929.333  0.006
  821   929.702  0.001
  822   930.072  0.001
  823   930.442  0.001
  824   930.812  0.002
  825   931.183  0.002
  826   931.554  0.001
  827   931.925  0.002
  828   932.297  0.003
  829   932.669  0.005
  830   933.041  0.005
  831   933.414  0.003
  832   933.787  0.001
  833   934.160  0.001
  834   934.533  0.002
  835   934.907  0.004
  836   935.281  0.002
  837   935.655  0.001
  838   936.030  0.001
  839   936.405  0.002
  840   936.780  0.005
  841   937.156  0.005
  842   937.532  0.004
  843   937.908  0.002
  844   938.285  0.003
  845   938.662  0.006
  846   939.039  0.004
  847   939.416  0.001
  848   939.794  0.001
  849   940.172  0.004
  850   940.550  0.008
  851   940.929  0.011
  852   941.308  0.008
  853   941.688  0.002
  854   942.067  0.005
  855   942.447  0.008
  856   942.827  0.003
  857   943.208  0.001
  858   943.589  0.002
  859   943.970  0.009
  860   944.352  0.010
  861   944.734  0.011
  862   945.116  0.009
  863   945.498  0.003
  864   945.881  0.009
  865   946.264  0.007
  866   946.647  0.002
  867   947.031  0.002
  868   947.415  0.007
  869   947.800  0.013
  870   948.184  0.015
  871   948.569  0.014
  872   948.955  0.003
  873   949.340  0.009
  874   949.726  0.008
  875   950.113  0.002
  876   950.499  0.002
  877   950.886  0.006
  878   951.273  0.008
  879   951.661  0.003
  880   952.049  0.002
  881   952.437  0.003
  882   952.826  0.008
  883   953.214  0.013
  884   953.604  0.012
  885   953.993  0.005
  886   954.383  0.006
  887   954.773  0.007
  888   955.163  0.011
  889   955.554  0.014
  890   955.945  0.009
  891   956.337  0.005
  892   956.729  0.005
  893   957.121  0.005
  894   957.513  0.005
  895   957.906  0.005
  896   958.299  0.007
  897   958.692  0.009
  898   959.086  0.014
  899   959.480  0.011
  900   959.874  0.008
  901   960.269  0.008
  902   960.664  0.009
  903   961.060  0.007
  904   961.455  0.006
  905   961.851  0.006
  906   962.248  0.006
  907   962.644  0.005
  908   963.041  0.005
  909   963.439  0.005
  910   963.836  0.005
  911   964.234  0.005
  912   964.633  0.005
  913   965.031  0.004
  914   965.430  0.006
  915   965.830  0.007
  916   966.229  0.008
  917   966.630  0.010
  918   967.030  0.010
  919   967.431  0.006
  920   967.832  0.007
  921   968.233  0.004
  922   968.635  0.005
  923   969.037  0.008
  924   969.439  0.006
  925   969.842  0.008
  926   970.245  0.009
  927   970.648  0.010
  928   971.052  0.010
  929   971.456  0.012
  930   971.860  0.011
  931   972.265  0.008
  932   972.670  0.009
  933   973.076  0.014
  934   973.481  0.013
  935   973.887  0.014
  936   974.294  0.012
  937   973.818  0.014
  938   974.225  0.013
  939   974.631  0.013
  940   975.039  0.011
  941   975.446  0.013
  942   975.854  0.021
  943   976.262  0.019
  944   976.670  0.012
  945   977.079  0.013
  946   977.488  0.016
  947   977.898  0.017
  948   978.308  0.017
  949   978.718  0.021
  950   979.128  0.022
  951   979.539  0.016
  952   979.950  0.017
  953   980.362  0.023
  954   980.774  0.024
  955   981.186  0.024
  956   981.599  0.028
  957   982.011  0.028
  958   982.425  0.022
  959   982.838  0.024
  960   983.252  0.030
  961   983.667  0.033
  962   984.081  0.031
  963   984.496  0.039
  964   984.912  0.034
  965   985.327  0.027
  966   985.743  0.033
  967   986.160  0.038
  968   986.576  0.037
  969   986.993  0.039
  970   987.411  0.044
  971   987.829  0.040
  972   988.247  0.037
  973   988.665  0.041
  974   989.084  0.050
  975   989.503  0.045
  976   989.923  0.050
  977   990.343  0.056
  978   990.763  0.042
  979   991.183  0.041
  980   991.604  0.044
  981   992.026  0.042
  982   992.447  0.050
  983   992.869  0.044
  984   993.292  0.043
  985   993.714  0.043
  986   994.137  0.041
  987   994.561  0.042
  988   994.984  0.046
  989   995.409  0.046
  990   995.833  0.044
  991   996.258  0.048
  992   996.683  0.045
  993   997.109  0.055
  994   997.535  0.040
  995   997.961  0.055
  996   998.388  0.056
  997   998.814  0.033
  998   999.242  0.052
  999   999.669  0.063
 1000  1000.098  0.049
 1001  1000.526  0.056
 1002  1000.955  0.056
 1003  1001.384  0.045
 1004  1001.813  0.065
 1005  1002.243  0.071
 1006  1002.674  0.058
 1007  1003.104  0.060
 1008  1003.535  0.054
 1009  1003.966  0.052
 1010  1004.398  0.063
 1011  1004.830  0.064
 1012  1005.263  0.059
 1013  1005.695  0.056
 1014  1006.129  0.049
 1015  1006.562  0.058
 1016  1006.996  0.076
 1017  1007.430  0.067
 1018  1007.865  0.055
 1019  1008.300  0.061
 1020  1008.735  0.070
 1021  1009.171  0.079
 1022  1009.607  0.088
 1023  1010.044  0.083
 1024  1010.480  0.068
 1025  1010.918  0.078
 1026  1011.355  0.072
 1027  1011.793  0.080
 1028  1012.231  0.068
 1029  1012.670  0.052
 1030  1013.109  0.055
 1031  1013.549  0.063
 1032  1013.988  0.065
 1033  1014.429  0.076
 1034  1014.869  0.069
 1035  1015.310  0.064
 1036  1015.751  0.066
 1037  1016.193  0.060
 1038  1016.635  0.062
 1039  1017.078  0.051
 1040  1017.520  0.064
 1041  1017.964  0.073
 1042  1018.407  0.065
 1043  1018.851  0.062
 1044  1019.296  0.055
 1045  1019.740  0.055
 1046  1020.185  0.058
 1047  1020.631  0.071
 1048  1021.077  0.074
 1049  1021.523  0.070
 1050  1021.969  0.072
 1051  1022.416  0.077
 1052  1022.864  0.075
 1053  1023.312  0.085
 1054  1023.760  0.085
 1055  1024.208  0.101
 1056  1024.657  0.100
 1057  1025.106  0.099
 1058  1025.556  0.112
 1059  1026.006  0.104
 1060  1026.457  0.119
 1061  1026.907  0.116
 1062  1027.359  0.124
 1063  1027.810  0.121
 1064  1028.262  0.111
 1065  1028.714  0.120
 1066  1029.167  0.133
 1067  1029.620  0.133
 1068  1030.074  0.117
 1069  1030.528  0.133
 1070  1030.982  0.139
 1071  1031.437  0.113
 1072  1031.892  0.094
 1073  1032.348  0.093
 1074  1032.803  0.102
 1075  1033.260  0.098
 1076  1033.716  0.080
 1077  1034.173  0.080
 1078  1034.631  0.092
 1079  1035.089  0.075
 1080  1035.547  0.056
 1081  1036.005  0.069
 1082  1036.464  0.074
 1083  1036.924  0.062
 1084  1037.384  0.067
 1085  1037.844  0.067
 1086  1038.305  0.066
 1087  1038.766  0.067
 1088  1039.227  0.081
 1089  1039.689  0.075
 1090  1040.151  0.087
 1091  1040.614  0.101
 1092  1041.077  0.109
 1093  1041.540  0.147
 1094  1042.004  0.142
 1095  1042.468  0.049
 1096  1042.932  0.036
 1097  1043.397  0.035
 1098  1043.863  0.040
 1099  1044.329  0.073
 1100  1044.795  0.096
 1101  1045.261  0.081
 1102  1045.729  0.104
 1103  1046.196  0.123
 1104  1056.104  0.112
 1105  1056.580  0.117
 1106  1057.056  0.122
 1107  1057.533  0.128
 1108  1058.010  0.127
 1109  1058.487  0.116
 1110  1058.965  0.078
 1111  1059.443  0.071
 1112  1059.922  0.074
 1113  1060.401  0.087
 1114  1060.881  0.078
 1115  1061.361  0.086
 1116  1061.841  0.083
 1117  1062.322  0.100
 1118  1062.803  0.118
 1119  1063.285  0.113
 1120  1063.767  0.109
 1121  1064.249  0.100
 1122  1064.732  0.092
 1123  1065.215  0.080
 1124  1065.699  0.121
 1125  1066.183  0.135
 1126  1066.668  0.089
 1127  1067.153  0.061
 1128  1067.638  0.053
 1129  1068.124  0.036
 1130  1068.610  0.027
 1131  1069.097  0.027
 1132  1069.584  0.042
 1133  1070.071  0.035
 1134  1070.559  0.033
 1135  1071.047  0.028
 1136  1071.536  0.024
 1137  1072.025  0.023
 1138  1072.515  0.020
 1139  1073.005  0.024
 1140  1073.495  0.021
 1141  1073.986  0.019
 1142  1074.477  0.058
 1143  1074.969  0.045
 1144  1075.461  0.015
 1145  1075.954  0.019
 1146  1076.447  0.015
 1147  1076.940  0.013
 1148  1077.434  0.016
 1149  1077.928  0.009
 1150  1078.423  0.019
 1151  1078.918  0.016
 1152  1079.414  0.012
 1153  1079.910  0.015
 1154  1080.406  0.010
 1155  1080.903  0.021
 1156  1081.400  0.019
 1157  1081.898  0.010
 1158  1082.396  0.012
 1159  1082.895  0.008
 1160  1083.394  0.011
 1161  1083.893  0.009
 1162  1084.393  0.008
 1163  1084.893  0.010
 1164  1085.394  0.014
 1165  1085.895  0.010
 1166  1086.397  0.006
 1167  1086.899  0.008
 1168  1087.401  0.009
 1169  1087.904  0.014
 1170  1088.408  0.011
 1171  1088.912  0.006
 1172  1089.416  0.007
 1173  1089.921  0.009
 1174  1090.426  0.015
 1175  1090.931  0.028
 1176  1091.437  0.028
 1177  1091.944  0.017
 1178  1092.451  0.008
 1179  1092.958  0.006
 1180  1093.466  0.006
 1181  1093.974  0.006
 1182  1094.483  0.008
 1183  1094.992  0.008
 1184  1095.501  0.006
 1185  1096.011  0.005
 1186  1096.522  0.005
 1187  1097.033  0.005
 1188  1097.544  0.005
 1189  1098.056  0.006
 1190  1098.568  0.007
 1191  1099.081  0.024
 1192  1099.594  0.026
 1193  1100.108  0.027
 1194  1100.622  0.012
 1195  1101.136  0.039
 1196  1101.651  0.065
 1197  1102.167  0.020
 1198  1102.683  0.005
 1199  1103.199  0.005
 1200  1103.716  0.006
 1201  1104.233  0.006
 1202  1104.751  0.005
 1203  1105.269  0.007
 1204  1105.788  0.011
 1205  1106.307  0.023
 1206  1106.826  0.023
 1207  1107.346  0.032
 1208  1107.867  0.009
 1209  1108.388  0.007
 1210  1108.909  0.006
 1211  1109.431  0.006
 1212  1109.953  0.006
 1213  1110.476  0.008
 1214  1110.999  0.033
 1215  1111.523  0.029
 1216  1112.047  0.025
 1217  1112.571  0.009
 1218  1113.096  0.010
 1219  1113.622  0.009
 1220  1114.148  0.007
 1221  1114.674  0.010
 1222  1115.201  0.013
 1223  1115.729  0.008
 1224  1116.257  0.007
 1225  1116.785  0.015
 1226  1117.314  0.020
 1227  1117.843  0.019
 1228  1118.373  0.011
 1229  1118.903  0.014
 1230  1119.433  0.015
 1231  1119.965  0.011
 1232  1120.496  0.070
 1233  1121.028  0.072
 1234  1121.561  0.045
 1235  1122.094  0.021
 1236  1122.627  0.017
 1237  1123.161  0.008
 1238  1123.696  0.013
 1239  1124.231  0.016
 1240  1124.766  0.010
 1241  1125.302  0.012
 1242  1125.839  0.016
 1243  1126.375  0.011
 1244  1126.913  0.010
 1245  1127.450  0.014
 1246  1127.989  0.012
 1247  1128.527  0.010
 1248  1129.067  0.012
 1249  1129.606  0.010
 1250  1130.147  0.010
 1251  1130.687  0.010
 1252  1131.228  0.009
 1253  1131.770  0.010
 1254  1132.312  0.012
 1255  1132.855  0.011
 1256  1133.398  0.011
 1257  1133.942  0.013
 1258  1134.486  0.016
 1259  1135.030  0.035
 1260  1135.575  0.037
 1261  1136.121  0.032
 1262  1136.667  0.034
 1263  1216.974  0.010
 1264  1217.481  0.017
 1265  1217.988  0.024
 1266  1218.496  0.028
 1267  1219.004  0.025
 1268  1219.513  0.035
 1269  1220.022  0.040
 1270  1220.531  0.031
 1271  1221.041  0.028
 1272  1221.552  0.042
 1273  1222.062  0.046
 1274  1222.574  0.037
 1275  1223.085  0.027
 1276  1223.597  0.026
 1277  1224.110  0.025
 1278  1224.623  0.026
 1279  1225.136  0.025
 1280  1225.650  0.031
 1281  1226.164  0.035
 1282  1226.679  0.023
 1283  1227.194  0.019
 1284  1227.709  0.006
 1285  1228.225  0.015
 1286  1228.742  0.034
 1287  1229.258  0.050
 1288  1229.776  0.039
 1289  1230.293  0.033
 1290  1230.811  0.020
 1291  1231.330  0.004
 1292  1231.849  0.004
 1293  1232.368  0.006
 1294  1232.888  0.016
 1295  1233.408  0.033
 1296  1233.929  0.020
 1297  1234.450  0.004
 1298  1234.971  0.005
 1299  1235.493  0.052
 1300  1236.016  0.047
 1301  1236.538  0.039
 1302  1237.062  0.065
 1303  1237.585  0.053
 1304  1238.110  0.024
 1305  1238.634  0.033
 1306  1239.159  0.035
 1307  1239.685  0.017
 1308  1240.211  0.019
 1309  1240.737  0.028
 1310  1241.264  0.026
 1311  1241.791  0.032
 1312  1242.319  0.034
 1313  1242.847  0.031
 1314  1243.375  0.035
 1315  1243.904  0.063
 1316  1244.434  0.059
 1317  1244.964  0.064
 1318  1245.494  0.034
 1319  1246.025  0.029
 1320  1246.556  0.023
 1321  1247.088  0.025
 1322  1247.620  0.040
 1323  1248.152  0.041
 1324  1248.685  0.017
 1325  1249.219  0.031
 1326  1249.753  0.033
 1327  1250.287  0.023
 1328  1250.822  0.017
 1329  1251.357  0.014
 1330  1251.893  0.016
 1331  1252.429  0.016
 1332  1252.965  0.028
 1333  1253.503  0.044
 1334  1254.040  0.031
 1335  1254.578  0.021
 1336  1255.116  0.025
 1337  1255.655  0.015
 1338  1256.195  0.018
 1339  1256.734  0.028
 1340  1257.275  0.014
 1341  1257.815  0.017
 1342  1258.357  0.021
 1343  1258.898  0.039
 1344  1259.440  0.051
 1345  1259.983  0.201
 1346  1260.526  0.153
 1347  1261.069  0.031
 1348  1261.613  0.024
 1349  1262.157  0.028
 1350  1262.702  0.023
 1351  1263.247  0.029
 1352  1263.793  0.023
 1353  1264.339  0.026
 1354  1264.886  0.057
 1355  1265.433  0.050
 1356  1265.981  0.039
 1357  1266.529  0.026
 1358  1267.077  0.033
 1359  1267.626  0.085
 1360  1268.176  0.032
 1361  1268.726  0.026
 1362  1269.276  0.056
 1363  1269.827  0.059
 1364  1270.378  0.096
 1365  1270.930  0.043
 1366  1271.482  0.085
 1367  1272.035  0.124
 1368  1272.588  0.019
 1369  1284.348  0.023
 1370  1284.911  0.018
 1371  1285.475  0.009
 1372  1286.039  0.032
 1373  1286.604  0.043
 1374  1287.169  0.069
 1375  1287.735  0.090
 1376  1288.301  0.074
 1377  1288.868  0.110
 1378  1289.435  0.041
 1379  1290.003  0.040
 1380  1290.571  0.040
 1381  1291.140  0.026
 1382  1291.709  0.017
 1383  1292.278  0.028
 1384  1292.848  0.031
 1385  1293.419  0.022
 1386  1293.990  0.033
 1387  1294.561  0.036
 1388  1295.133  0.026
 1389  1295.706  0.023
 1390  1296.279  0.058
 1391  1296.853  0.147
 1392  1297.427  0.074
 1393  1298.001  0.027
 1394  1298.576  0.024
 1395  1299.151  0.021
 1396  1299.727  0.037
 1397  1300.304  0.034
 1398  1300.881  0.023
 1399  1301.458  0.035
 1400  1302.036  0.026
 1401  1302.615  0.026
 1402  1303.194  0.034
 1403  1303.773  0.030
 1404  1304.353  0.029
 1405  1304.934  0.030
 1406  1305.515  0.043
 1407  1306.096  0.068
 1408  1306.678  0.030
 1409  1307.260  0.038
 1410  1307.843  0.070
 1411  1308.427  0.043
 1412  1309.011  0.023
 1413  1309.595  0.013
 1414  1310.180  0.013
 1415  1310.766  0.023
 1416  1311.352  0.039
 1417  1311.938  0.129
 1418  1312.525  0.057
 1419  1313.113  0.037
 1420  1313.701  0.038
 1421  1314.289  0.023
 1422  1314.878  0.030
 1423  1315.468  0.015
 1424  1316.058  0.035
 1425  1316.648  0.097
 1426  1317.239  0.094
 1427  1317.831  0.026
 1428  1318.423  0.058
 1429  1319.016  0.058
 1430  1319.609  0.029
 1431  1320.202  0.030
 1432  1320.797  0.024
 1433  1321.391  0.046
 1434  1321.986  0.055
 1435  1322.582  0.044
 1436  1323.178  0.031
 1437  1323.775  0.022
 1438  1324.372  0.015
 1439  1324.970  0.010
 1440  1325.568  0.011
 1441  1326.167  0.019
 1442  1326.766  0.078
 1443  1327.366  0.094
 1444  1327.967  0.050
 1445  1328.568  0.020
 1446  1329.169  0.018
 1447  1329.771  0.023
 1448  1330.373  0.022
 1449  1330.976  0.013
 1450  1331.580  0.043
 1451  1332.184  0.099
 1452  1332.788  0.080
 1453  1333.393  0.037
 1454  1333.999  0.008
 1455  1334.605  0.009
 1456  1335.212  0.014
 1457  1335.819  0.037
 1458  1336.427  0.126
 1459  1337.035  0.070
 1460  1337.644  0.088
 1461  1338.253  0.118
 1462  1338.863  0.040
 1463  1338.161  0.132
 1464  1338.669  0.045
 1465  1339.178  0.034
 1466  1339.687  0.032
 1467  1340.196  0.047
 1468  1340.706  0.078
 1469  1341.216  0.099
 1470  1341.727  0.064
 1471  1342.238  0.041
 1472  1342.749  0.044
 1473  1343.261  0.029
 1474  1343.773  0.012
 1475  1344.286  0.014
 1476  1344.799  0.007
 1477  1345.312  0.009
 1478  1345.826  0.020
 1479  1346.340  0.055
 1480  1346.855  0.048
 1481  1347.370  0.024
 1482  1347.886  0.028
 1483  1348.402  0.051
 1484  1348.918  0.051
 1485  1349.435  0.043
 1486  1349.952  0.029
 1487  1350.469  0.048
 1488  1350.987  0.037
 1489  1351.506  0.034
 1490  1352.025  0.032
 1491  1352.544  0.030
 1492  1353.063  0.027
 1493  1353.583  0.024
 1494  1354.104  0.017
 1495  1354.625  0.039
 1496  1355.146  0.135
 1497  1355.668  0.053
 1498  1356.190  0.031
 1499  1356.713  0.027
 1500  1357.236  0.013
 1501  1357.759  0.063
 1502  1358.283  0.042
 1503  1358.807  0.014
 1504  1359.332  0.017
 1505  1359.857  0.037
 1506  1360.383  0.052
 1507  1360.909  0.046
 1508  1361.435  0.085
 1509  1361.962  0.021
 1510  1362.489  0.064
 1511  1363.017  0.120
 1512  1363.545  0.112
 1513  1364.073  0.059
 1514  1364.602  0.031
 1515  1365.131  0.023
 1516  1365.661  0.025
 1517  1366.192  0.031
 1518  1366.722  0.027
 1519  1367.253  0.007
 1520  1367.785  0.065
 1521  1368.317  0.129
 1522  1368.849  0.113
 1523  1369.382  0.026
 1524  1369.915  0.021
 1525  1370.449  0.020
 1526  1370.983  0.021
 1527  1371.517  0.006
 1528  1372.052  0.012
 1529  1372.588  0.026
 1530  1373.123  0.032
 1531  1373.660  0.057
 1532  1374.196  0.045
 1533  1374.733  0.043
 1534  1375.271  0.054
 1535  1375.809  0.045
 1536  1376.347  0.007
 1537  1376.886  0.008
 1538  1377.425  0.016
 1539  1377.965  0.035
 1540  1378.505  0.027
 1541  1379.046  0.015
 1542  1379.587  0.022
 1543  1380.128  0.020
 1544  1380.670  0.016
 1545  1381.213  0.011
 1546  1381.756  0.011
 1547  1382.299  0.009
 1548  1382.843  0.016
 1549  1383.387  0.014
 1550  1383.931  0.005
 1551  1384.476  0.006
 1552  1385.022  0.008
 1553  1385.568  0.009
 1554  1386.114  0.034
 1555  1386.661  0.035
 1556  1387.208  0.051
 1557  1387.756  0.054
 1558  1388.304  0.018
 1559  1388.852  0.006
 1560  1389.401  0.006
 1561  1389.951  0.007
 1562  1390.501  0.011
 1563  1391.051  0.012
 1564  1391.602  0.007
 1565  1392.153  0.006
 1566  1392.705  0.008
 1567  1393.257  0.009
 1568  1393.810  0.025
 1569  1394.363  0.051
 1570  1394.916  0.041
 1571  1395.470  0.039
 1572  1396.025  0.048
 1573  1396.579  0.012
 1574  1397.135  0.014
 1575  1397.691  0.030
 1576  1398.247  0.020
 1577  1398.803  0.052
 1578  1399.361  0.058
 1579  1399.918  0.024
 1580  1400.476  0.006
 1581  1401.035  0.004
 1582  1401.594  0.004
 1583  1402.153  0.004
 1584  1402.713  0.005
 1585  1403.273  0.006
 1586  1403.834  0.008
 1587  1404.396  0.034
 1588  1404.957  0.058
 1589  1405.519  0.041
 1590  1406.082  0.008
 1591  1406.645  0.005
 1592  1407.209  0.005
 1593  1407.773  0.005
 1594  1408.337  0.006
 1595  1408.902  0.006
 1596  1409.468  0.013
 1597  1410.034  0.019
 1598  1410.600  0.010
 1599  1411.167  0.018
 1600  1411.734  0.029
 1601  1412.302  0.028
 1602  1412.870  0.005
 1603  1413.439  0.004
 1604  1414.008  0.004
 1605  1414.578  0.005
 1606  1415.148  0.005
 1607  1415.718  0.023
 1608  1416.289  0.025
 1609  1416.861  0.030
 1610  1417.433  0.040
 1611  1418.005  0.022
 1612  1418.578  0.054
 1613  1419.151  0.071
 1614  1419.725  0.077
 1615  1420.300  0.020
 1616  1420.875  0.008
 1617  1421.450  0.005
 1618  1422.026  0.003
 1619  1422.602  0.003
 1620  1423.178  0.037
 1621  1423.756  0.059
 1622  1424.333  0.055
 1623  1424.911  0.011
 1624  1425.490  0.005
 1625  1426.069  0.005
 1626  1426.649  0.006
 1627  1427.229  0.003
 1628  1427.809  0.009
 1629  1428.390  0.012
 1630  1428.972  0.010
 1631  1429.554  0.050
 1632  1430.136  0.053
 1633  1430.719  0.017
 1634  1431.303  0.004
 1635  1431.887  0.010
 1636  1432.471  0.013
 1637  1433.056  0.030
 1638  1433.641  0.019
 1639  1434.227  0.004
 1640  1434.814  0.006
 1641  1435.400  0.018
 1642  1435.988  0.045
 1643  1436.576  0.082
 1644  1437.164  0.082
 1645  1437.753  0.017
 1646  1438.342  0.007
 1647  1438.932  0.005
 1648  1439.522  0.004
 1649  1440.113  0.005
 1650  1440.704  0.006
 1651  1441.296  0.005
 1652  1441.888  0.004
 1653  1442.481  0.003
 1654  1443.074  0.004
 1655  1460.265  0.005
 1656  1460.873  0.003
 1657  1461.482  0.002
 1658  1462.091  0.002
 1659  1462.701  0.002
 1660  1463.311  0.004
 1661  1463.922  0.013
 1662  1464.533  0.056
 1663  1465.145  0.055
 1664  1465.758  0.019
 1665  1466.371  0.009
 1666  1466.984  0.002
 1667  1467.598  0.002
 1668  1468.212  0.002
 1669  1468.827  0.002
 1670  1469.443  0.002
 1671  1470.059  0.004
 1672  1470.675  0.008
 1673  1471.292  0.043
 1674  1471.910  0.047
 1675  1472.528  0.038
 1676  1473.146  0.036
 1677  1473.765  0.045
 1678  1474.385  0.018
 1679  1475.005  0.007
 1680  1475.625  0.041
 1681  1476.246  0.064
 1682  1476.868  0.050
 1683  1477.490  0.005
 1684  1478.113  0.003
 1685  1478.736  0.002
 1686  1479.360  0.002
 1687  1479.984  0.002
 1688  1480.609  0.021
 1689  1481.234  0.038
 1690  1481.860  0.022
 1691  1482.486  0.003
 1692  1483.113  0.002
 1693  1483.741  0.003
 1694  1484.369  0.003
 1695  1484.997  0.003
 1696  1485.626  0.010
 1697  1486.255  0.015
 1698  1486.885  0.047
 1699  1487.516  0.051
 1700  1488.147  0.020
 1701  1488.779  0.031
 1702  1489.411  0.043
 1703  1490.044  0.037
 1704  1490.677  0.042
 1705  1491.311  0.042
 1706  1491.945  0.005
 1707  1492.580  0.002
 1708  1493.215  0.003
 1709  1493.851  0.002
 1710  1494.487  0.004
 1711  1495.124  0.008
 1712  1495.762  0.049
 1713  1496.400  0.050
 1714  1497.038  0.022
 1715  1497.677  0.006
 1716  1498.317  0.044
 1717  1498.957  0.052
 1718  1499.598  0.021
 1719  1500.239  0.005
 1720  1500.881  0.003
 1721  1501.523  0.018
 1722  1502.166  0.018
 1723  1502.810  0.003
 1724  1503.454  0.003
 1725  1504.098  0.006
 1726  1504.743  0.023
 1727  1505.389  0.049
 1728  1506.035  0.034
 1729  1506.682  0.034
 1730  1507.329  0.042
 1731  1507.977  0.025
 1732  1508.625  0.032
 1733  1509.274  0.034
 1734  1509.923  0.036
 1735  1510.573  0.018
 1736  1511.224  0.008
 1737  1511.875  0.040
 1738  1512.527  0.046
 1739  1513.179  0.012
 1740  1513.832  0.003
 1741  1514.485  0.026
 1742  1515.139  0.029
 1743  1515.793  0.025
 1744  1516.448  0.038
 1745  1517.104  0.040
 1746  1517.760  0.057
 1747  1518.417  0.020
 1748  1519.074  0.004
 1749  1519.732  0.033
 1750  1520.390  0.034
 1751  1521.049  0.043
 1752  1521.708  0.038
 1753  1522.368  0.035
 1754  1523.029  0.042
 1755  1523.690  0.013
 1756  1524.352  0.018
 1757  1525.014  0.042
 1758  1525.677  0.045
 1759  1526.340  0.019
 1760  1527.004  0.033
 1761  1541.096  0.023
 1762  1541.772  0.052
 1763  1542.449  0.055
 1764  1543.126  0.023
 1765  1543.803  0.025
 1766  1544.482  0.025
 1767  1545.161  0.039
 1768  1545.840  0.036
 1769  1546.520  0.005
 1770  1547.200  0.002
 1771  1547.881  0.003
 1772  1548.563  0.004
 1773  1549.245  0.033
 1774  1549.928  0.048
 1775  1550.612  0.035
 1776  1551.296  0.005
 1777  1551.980  0.003
 1778  1552.666  0.003
 1779  1553.351  0.012
 1780  1554.038  0.046
 1781  1554.725  0.043
 1782  1555.412  0.007
 1783  1556.100  0.008
 1784  1556.789  0.028
 1785  1557.479  0.046
 1786  1558.168  0.037
 1787  1558.859  0.035
 1788  1559.550  0.030
 1789  1560.242  0.042
 1790  1560.934  0.037
 1791  1561.627  0.007
 1792  1562.320  0.004
 1793  1563.015  0.002
 1794  1563.709  0.004
 1795  1564.404  0.041
 1796  1565.100  0.046
 1797  1565.797  0.014
 1798  1566.494  0.003
 1799  1567.192  0.003
 1800  1567.890  0.007
 1801  1568.589  0.040
 1802  1569.288  0.043
 1803  1569.988  0.051
 1804  1570.689  0.024
 1805  1571.390  0.005
 1806  1572.092  0.003
 1807  1572.795  0.003
 1808  1573.498  0.005
 1809  1574.201  0.008
 1810  1574.906  0.016
 1811  1575.611  0.051
 1812  1576.316  0.049
 1813  1577.022  0.030
 1814  1577.729  0.012
 1815  1578.437  0.006
 1816  1579.145  0.005
 1817  1579.853  0.004
 1818  1580.562  0.003
 1819  1581.272  0.002
 1820  1581.983  0.002
 1821  1582.694  0.003
 1822  1583.405  0.003
 1823  1584.118  0.002
 1824  1584.831  0.001
 1825  1585.544  0.001
 1826  1586.258  0.001
 1827  1586.973  0.001
 1828  1587.688  0.001
 1829  1588.404  0.001
 1830  1589.121  0.011
 1831  1589.838  0.015
 1832  1590.556  0.008
 1833  1591.275  0.016
 1834  1591.994  0.016
 1835  1592.714  0.003
 1836  1593.434  0.006
 1837  1594.155  0.037
 1838  1594.877  0.035
 1839  1595.599  0.014
 1840  1596.322  0.020
 1841  1597.045  0.009
 1842  1597.770  0.001
 1843  1598.494  0.001
 1844  1599.220  0.001
 1845  1599.946  0.002
 1846  1600.672  0.024
 1847  1601.400  0.029
 1848  1602.128  0.013
 1849  1602.856  0.033
 1850  1603.585  0.036
 1851  1604.315  0.008
 1852  1605.046  0.001
 1853  1605.777  0.004
 1854  1606.509  0.031
 1855  1607.241  0.038
 1856  1607.974  0.019
 1857  1608.708  0.026
 1858  1609.442  0.042
 1859  1610.177  0.028
 1860  1610.913  0.003
 1861  1611.649  0.003
 1862  1612.386  0.003
 1863  1613.124  0.004
 1864  1613.862  0.005
 1865  2181.494  0.099
 1866  2182.400  0.048
 1867  2183.306  0.045
 1868  2184.213  0.027
 1869  2185.121  0.043
 1870  2186.030  0.065
 1871  2186.939  0.092
 1872  2187.850  0.049
 1873  2188.760  0.026
 1874  2189.672  0.037
 1875  2190.584  0.032
 1876  2191.498  0.024
 1877  2192.412  0.064
 1878  2193.326  0.061
 1879  2194.242  0.063
 1880  2195.158  0.024
 1881  2196.075  0.024
 1882  2196.992  0.023
 1883  2197.911  0.016
 1884  2198.830  0.030
 1885  2199.750  0.072
 1886  2200.671  0.059
 1887  2201.592  0.011
 1888  2202.514  0.036
 1889  2203.437  0.016
 1890  2204.361  0.020
 1891  2205.285  0.036
 1892  2206.210  0.018
 1893  2207.136  0.014
 1894  2208.063  0.017
 1895  2208.991  0.022
 1896  2209.919  0.013
 1897  2210.848  0.016
 1898  2211.778  0.075
 1899  2212.708  0.083
 1900  2213.640  0.017
 1901  2214.572  0.010
 1902  2215.505  0.016
 1903  2216.438  0.017
 1904  2217.373  0.011
 1905  2218.308  0.039
 1906  2219.244  0.039
 1907  2220.181  0.013
 1908  2221.118  0.021
 1909  2222.057  0.046
 1910  2222.996  0.024
 1911  2223.936  0.052
 1912  2224.876  0.058
 1913  2225.818  0.028
 1914  2226.760  0.028
 1915  2227.703  0.034
 1916  2228.646  0.022
 1917  2229.591  0.020
 1918  2230.536  0.024
 1919  2231.482  0.021
 1920  2232.429  0.021
 1921  2233.377  0.024
 1922  2234.325  0.022
 1923  2235.275  0.022
 1924  2236.225  0.026
 1925  2237.176  0.025
 1926  2238.127  0.023
 1927  2239.080  0.019
 1928  2240.033  0.019
 1929  2240.987  0.019
 1930  2241.942  0.023
 1931  2242.897  0.039
 1932  2243.854  0.019
 1933  2244.811  0.015
 1934  2245.769  0.015
 1935  2246.727  0.013
 1936  2247.687  0.015
 1937  2248.647  0.018
 1938  2249.608  0.018
 1939  2250.570  0.015
 1940  2251.533  0.014
 1941  2252.497  0.013
 1942  2253.461  0.014
 1943  2254.426  0.015
 1944  2255.392  0.013
 1945  2256.359  0.011
 1946  2257.326  0.011
 1947  2258.295  0.013
 1948  2259.264  0.013
 1949  2260.234  0.014
 1950  2261.205  0.013
 1951  2262.176  0.016
 1952  2263.149  0.020
 1953  2264.122  0.021
 1954  2265.096  0.023
 1955  2266.071  0.024
 1956  2267.047  0.028
 1957  2268.023  0.031
 1958  2269.000  0.032
 1959  2269.979  0.037
 1960  2270.958  0.031
 1961  2271.937  0.032
 1962  2272.918  0.038
 1963  2273.899  0.039
 1964  2274.882  0.038
 1965  2275.865  0.040
 1966  2276.848  0.042
 1967  2277.833  0.039
 1968  2278.819  0.041
 1969  2279.805  0.040
 1970  2280.792  0.042
 1971  2281.780  0.048
 1972  2282.769  0.050
 1973  2283.759  0.050
 1974  2284.749  0.047
 1975  2285.741  0.044
 1976  2286.733  0.043
 1977  2287.726  0.043
 1978  2288.720  0.045
 1979  2289.714  0.045
 1980  2290.710  0.044
 1981  2291.706  0.045
 1982  2292.703  0.043
 1983  2293.701  0.041
 1984  2294.700  0.041
 1985  2295.700  0.040
 1986  2296.701  0.039
 1987  2297.702  0.037
 1988  2298.704  0.038
 1989  2299.707  0.036
 1990  2300.711  0.034
 1991  2301.716  0.034
 1992  2302.722  0.033
 1993  2303.728  0.033
 1994  2304.735  0.032
 1995  2305.744  0.030
 1996  2306.753  0.029
 1997  2307.762  0.031
 1998  2308.773  0.030
 1999  2309.785  0.029
 2000  2310.797  0.029
 2001  2311.811  0.029
 2002  2312.825  0.029
 2003  2313.840  0.029
 2004  2314.856  0.026
 2005  2315.872  0.023
 2006  2316.890  0.022
 2007  2317.908  0.021
 2008  2318.928  0.020
 2009  2319.948  0.019
 2010  2320.969  0.017
 2011  2321.991  0.016
 2012  2323.014  0.021
 2013  2324.037  0.022
 2014  2325.062  0.016
 2015  2299.798  0.036
 2016  2300.703  0.034
 2017  2301.608  0.035
 2018  2302.514  0.033
 2019  2303.421  0.034
 2020  2304.329  0.032
 2021  2305.237  0.031
 2022  2306.146  0.030
 2023  2307.056  0.030
 2024  2307.966  0.031
 2025  2308.877  0.030
 2026  2309.789  0.029
 2027  2310.702  0.029
 2028  2311.615  0.030
 2029  2312.530  0.028
 2030  2313.445  0.029
 2031  2314.361  0.028
 2032  2315.277  0.024
 2033  2316.194  0.024
 2034  2317.112  0.021
 2035  2318.031  0.021
 2036  2318.950  0.020
 2037  2319.871  0.020
 2038  2320.792  0.017
 2039  2321.713  0.016
 2040  2322.636  0.017
 2041  2323.559  0.023
 2042  2324.483  0.020
 2043  2325.408  0.013
 2044  2326.333  0.011
 2045  2327.260  0.012
 2046  2328.187  0.012
 2047  2329.114  0.011
 2048  2330.043  0.013
 2049  2330.972  0.013
 2050  2331.902  0.012
 2051  2332.833  0.012
 2052  2333.765  0.014
 2053  2334.697  0.017
 2054  2335.630  0.023
 2055  2336.564  0.023
 2056  2337.499  0.016
 2057  2338.434  0.014
 2058  2339.370  0.014
 2059  2340.307  0.014
 2060  2341.245  0.015
 2061  2342.183  0.016
 2062  2343.123  0.015
 2063  2344.063  0.012
 2064  2345.003  0.013
 2065  2345.945  0.012
 2066  2346.887  0.014
 2067  2347.831  0.019
 2068  2348.774  0.022
 2069  2349.719  0.017
 2070  2350.665  0.014
 2071  2351.611  0.013
 2072  2352.558  0.010
 2073  2353.506  0.010
 2074  2354.454  0.010
 2075  2355.404  0.012
 2076  2356.354  0.012
 2077  2357.305  0.012
 2078  2358.257  0.010
 2079  2359.209  0.010
 2080  2360.162  0.009
 2081  2361.116  0.008
 2082  2362.071  0.008
 2083  2363.027  0.008
 2084  2363.983  0.009
 2085  2364.941  0.009
 2086  2365.899  0.009
 2087  2366.857  0.010
 2088  2367.817  0.010
 2089  2368.778  0.012
 2090  2369.739  0.015
 2091  2370.701  0.015
 2092  2371.664  0.017
 2093  2372.627  0.019
 2094  2373.592  0.017
 2095  2374.557  0.015
 2096  2375.523  0.015
 2097  2376.490  0.018
 2098  2377.457  0.023
 2099  2378.426  0.027
 2100  2379.395  0.032
 2101  2380.365  0.040
 2102  2381.335  0.043
 2103  2382.307  0.045
 2104  2383.280  0.047
 2105  2384.253  0.047
 2106  2385.227  0.046
 2107  2386.202  0.047
 2108  2387.177  0.046
 2109  2388.154  0.044
 2110  2389.131  0.043
 2111  2390.109  0.050
 2112  2391.088  0.050
 2113  2392.068  0.033
 2114  2393.048  0.014
 2115  2394.030  0.005
 2116  2395.012  0.003
 2117  2395.995  0.003
 2118  2396.979  0.004
 2119  2397.963  0.004
 2120  2398.949  0.004
 2121  2399.935  0.004
 2122  2400.922  0.005
 2123  2401.910  0.004
 2124  2402.899  0.004
 2125  2403.888  0.004
 2126  2404.879  0.004
 2127  2405.870  0.004
 2128  2406.862  0.004
 2129  2407.855  0.003
 2130  2408.849  0.003
 2131  2409.843  0.003
 2132  2410.839  0.004
 2133  2411.835  0.004
 2134  2412.832  0.004
 2135  2413.830  0.004
 2136  2414.828  0.003
 2137  2415.828  0.003
 2138  2416.828  0.003
 2139  2417.830  0.003
 2140  2418.832  0.003
 2141  2419.834  0.003
 2142  2420.838  0.002
 2143  2421.843  0.002
 2144  2422.848  0.002
 2145  2446.194  0.002
 2146  2447.219  0.002
 2147  2448.244  0.002
 2148  2449.270  0.002
 2149  2450.297  0.002
 2150  2451.325  0.002
 2151  2452.354  0.002
 2152  2453.383  0.002
 2153  2454.414  0.002
 2154  2455.445  0.002
 2155  2456.477  0.002
 2156  2457.510  0.002
 2157  2458.544  0.001
 2158  2459.578  0.001
 2159  2460.614  0.001
 2160  2461.650  0.001
 2161  2462.687  0.001
 2162  2463.725  0.001
 2163  2464.764  0.001
 2164  2465.804  0.002
 2165  2466.844  0.002
 2166  2467.886  0.002
 2167  2468.928  0.003
 2168  2469.971  0.003
 2169  2471.015  0.003
 2170  2472.060  0.003
 2171  2473.106  0.002
 2172  2474.153  0.002
 2173  2475.200  0.002
 2174  2476.249  0.002
 2175  2477.298  0.002
 2176  2478.348  0.002
 2177  2479.399  0.002
 2178  2480.451  0.002
 2179  2481.503  0.001
 2180  2482.557  0.001
 2181  2483.611  0.002
 2182  2484.667  0.002
 2183  2485.723  0.002
 2184  2486.780  0.001
 2185  2487.838  0.001
 2186  2488.896  0.002
 2187  2489.956  0.001
 2188  2491.017  0.001
 2189  2492.078  0.001
 2190  2493.141  0.001
 2191  2494.204  0.001
 2192  2495.268  0.001
 2193  2496.333  0.001
 2194  2497.399  0.001
 2195  2498.465  0.001
 2196  2499.533  0.001
 2197  2500.602  0.001
 2198  2501.671  0.001
 2199  2502.741  0.001
 2200  2503.812  0.001
 2201  2504.884  0.001
 2202  2505.957  0.001
 2203  2507.031  0.001
 2204  2508.106  0.001
 2205  2509.182  0.001
 2206  2510.258  0.001
 2207  2511.335  0.001
 2208  2512.414  0.001
 2209  2513.493  0.001
 2210  2514.573  0.001
 2211  2515.654  0.001
 2212  2516.736  0.001
 2213  2517.819  0.001
 2214  2518.903  0.001
 2215  2519.987  0.001
 2216  2521.073  0.001
 2217  2522.159  0.002
 2218  2523.247  0.002
 2219  2524.335  0.002
 2220  2525.424  0.003
 2221  2526.514  0.003
 2222  2527.605  0.003
 2223  2528.697  0.004
 2224  2529.790  0.004
 2225  2530.883  0.004
 2226  2531.978  0.005
 2227  2533.073  0.005
 2228  2534.170  0.005
 2229  2535.267  0.006
 2230  2536.366  0.006
 2231  2537.465  0.005
 2232  2538.565  0.005
 2233  2539.666  0.004
 2234  2540.768  0.004
 2235  2541.871  0.004
 2236  2542.975  0.004
 2237  2544.080  0.005
 2238  2545.185  0.005
 2239  2546.292  0.006
 2240  2547.399  0.006
 2241  2548.508  0.007
 2242  2549.617  0.006
 2243  2550.728  0.007
 2244  2551.839  0.008
 2245  2552.951  0.009
 2246  2554.064  0.009
 2247  2555.178  0.010
 2248  2556.293  0.010
 2249  2557.409  0.011
 2250  2558.526  0.008
 2251  2559.644  0.007
 2252  2560.763  0.005
 2253  2561.882  0.004
 2254  2563.003  0.005
 2255  2564.125  0.008
 2256  2565.247  0.007
 2257  2566.371  0.007
 2258  2567.495  0.008
 2259  2568.620  0.010
 2260  2569.747  0.010
 2261  2541.899  0.004
 2262  2542.904  0.004
 2263  2543.909  0.005
 2264  2544.916  0.005
 2265  2545.923  0.006
 2266  2546.931  0.006
 2267  2547.939  0.007
 2268  2548.949  0.007
 2269  2549.959  0.006
 2270  2550.970  0.007
 2271  2551.983  0.008
 2272  2552.995  0.009
 2273  2554.009  0.009
 2274  2555.024  0.009
 2275  2556.039  0.010
 2276  2557.055  0.011
 2277  2558.072  0.009
 2278  2559.090  0.007
 2279  2560.109  0.006
 2280  2561.128  0.005
 2281  2562.149  0.004
 2282  2563.170  0.006
 2283  2564.192  0.008
 2284  2565.215  0.007
 2285  2566.238  0.007
 2286  2567.263  0.007
 2287  2568.288  0.009
 2288  2569.315  0.011
 2289  2570.342  0.011
 2290  2571.370  0.011
 2291  2572.398  0.012
 2292  2573.428  0.016
 2293  2574.458  0.013
 2294  2575.490  0.010
 2295  2576.522  0.011
 2296  2577.555  0.014
 2297  2578.589  0.021
 2298  2579.624  0.011
 2299  2580.659  0.013
 2300  2581.696  0.021
 2301  2582.733  0.016
 2302  2583.771  0.009
 2303  2584.810  0.010
 2304  2585.850  0.012
 2305  2586.891  0.011
 2306  2587.932  0.009
 2307  2588.975  0.010
 2308  2590.018  0.011
 2309  2591.062  0.012
 2310  2592.107  0.010
 2311  2593.153  0.013
 2312  2594.200  0.010
 2313  2595.247  0.002
 2314  2596.296  0.006
 2315  2597.345  0.005
 2316  2598.395  0.001
 2317  2599.446  0.003
 2318  2600.498  0.009
 2319  2601.551  0.007
 2320  2602.605  0.001
 2321  2603.659  0.001
 2322  2604.715  0.006
 2323  2605.771  0.016
 2324  2606.828  0.024
 2325  2607.886  0.030
 2326  2608.945  0.019
 2327  2610.005  0.001
 2328  2611.066  0.002
 2329  2612.127  0.010
 2330  2613.190  0.009
 2331  2614.253  0.001
 2332  2615.317  0.001
 2333  2616.383  0.001
 2334  2617.448  0.001
 2335  2618.515  0.005
 2336  2619.583  0.013
 2337  2620.652  0.018
 2338  2621.721  0.040
 2339  2622.792  0.037
 2340  2623.863  0.018
 2341  2624.935  0.019
 2342  2626.009  0.013
 2343  2627.083  0.004
 2344  2628.157  0.015
 2345  2629.233  0.011
 2346  2630.310  0.001
 2347  2631.387  0.000
 2348  2632.466  0.002
 2349  2633.545  0.001
 2350  2634.626  0.013
 2351  2635.707  0.023
 2352  2636.789  0.026
 2353  2637.872  0.046
 2354  2638.956  0.041
 2355  2640.041  0.008
 2356  2641.126  0.012
 2357  2642.213  0.026
 2358  2643.301  0.018
 2359  2644.389  0.018
 2360  2645.479  0.010
 2361  2646.569  0.001
 2362  2647.660  0.002
 2363  2648.752  0.022
 2364  2649.845  0.023
 2365  2650.939  0.017
 2366  2652.034  0.023
 2367  2653.129  0.007
 2368  2654.226  0.008
 2369  2655.324  0.021
 2370  2656.422  0.022
 2371  2657.522  0.018
 2372  2658.622  0.017
 2373  2659.723  0.026
 2374  2660.825  0.020
 2375  2661.928  0.009
 2376  2663.033  0.024
 2377  2664.138  0.017
 2378  2665.243  0.014
