% AIRS Jan04 fast model fitting results over the 48 training
% profiles at 6 angles.  BT is the mean of the 288 (=48*6)
% BTobs spectra, RMS is the RMS of BTobs-BTcal, and amax is
% the maximum absolute value of BTobs-BTcal.
%
% Scott Hannon, 8 January 2004
%
% ID     freq      BT      RMS    amax
%----  --------  ------  ------  ------
    1   649.612  222.45  0.0193  0.0782
    2   649.851  221.10  0.0171  0.0828
    3   650.090  222.68  0.0187  0.0993
    4   650.328  230.48  0.0231  0.0924
    5   650.567  229.24  0.0205  0.0747
    6   650.807  222.44  0.0153  0.0540
    7   651.046  218.29  0.0180  0.0796
    8   651.285  217.30  0.0127  0.0633
    9   651.525  217.97  0.0078  0.0299
   10   651.765  226.07  0.0177  0.0723
   11   652.005  230.02  0.0163  0.0711
   12   652.245  223.36  0.0099  0.0382
   13   652.486  219.60  0.0138  0.0718
   14   652.727  218.14  0.0197  0.1181
   15   652.968  217.46  0.0126  0.0837
   16   653.209  223.12  0.0129  0.0828
   17   653.450  230.19  0.0162  0.1063
   18   653.691  225.26  0.0126  0.0708
   19   653.933  220.44  0.0108  0.0466
   20   654.175  218.47  0.0147  0.0517
   21   654.417  216.90  0.0078  0.0378
   22   654.659  220.51  0.0104  0.0471
   23   654.902  229.65  0.0165  0.1108
   24   655.144  228.13  0.0162  0.1097
   25   655.387  221.52  0.0079  0.0283
   26   655.630  219.97  0.0141  0.0571
   27   655.873  217.69  0.0125  0.0663
   28   656.116  218.83  0.0094  0.0317
   29   656.360  227.33  0.0167  0.0938
   30   656.604  229.81  0.0165  0.1035
   31   656.848  222.52  0.0111  0.0506
   32   657.092  220.46  0.0106  0.0417
   33   657.336  218.55  0.0148  0.0582
   34   657.581  217.72  0.0101  0.0516
   35   657.825  224.58  0.0142  0.0722
   36   658.070  230.11  0.0183  0.1200
   37   658.315  224.44  0.0118  0.0568
   38   658.561  220.03  0.0084  0.0357
   39   658.806  218.39  0.0109  0.0402
   40   659.052  217.19  0.0095  0.0455
   41   659.298  221.88  0.0140  0.0648
   42   659.544  229.34  0.0183  0.1200
   43   659.790  226.53  0.0148  0.0930
   44   660.037  220.47  0.0101  0.0458
   45   660.283  219.19  0.0126  0.0648
   46   660.530  217.54  0.0139  0.0582
   47   660.777  219.83  0.0099  0.0393
   48   661.024  227.25  0.0176  0.1179
   49   661.272  227.46  0.0173  0.1131
   50   661.519  220.48  0.0112  0.0448
   51   661.767  219.01  0.0117  0.0440
   52   662.015  218.71  0.0152  0.0586
   53   662.263  224.50  0.0195  0.1076
   54   662.512  234.68  0.0245  0.1252
   55   662.761  235.98  0.0166  0.0833
   56   663.009  230.86  0.0162  0.0696
   57   663.258  226.47  0.0188  0.0825
   58   663.508  223.72  0.0232  0.1015
   59   663.757  222.29  0.0240  0.1109
   60   664.007  223.75  0.0177  0.0773
   61   664.256  226.60  0.0183  0.1046
   62   664.506  223.81  0.0156  0.0878
   63   664.757  225.40  0.0178  0.0888
   64   665.007  226.62  0.0151  0.0491
   65   665.258  224.38  0.0166  0.0537
   66   665.509  222.71  0.0152  0.0590
   67   665.759  224.38  0.0133  0.0770
   68   666.011  222.00  0.0106  0.0615
   69   666.262  218.31  0.0059  0.0250
   70   666.514  219.85  0.0090  0.0369
   71   666.766  222.28  0.0131  0.0555
   72   667.018  225.23  0.0090  0.0408
   73   667.270  236.31  0.0328  0.1503
   74   667.522  247.91  0.0240  0.1540
   75   667.775  249.43  0.0275  0.1221
   76   668.028  248.62  0.0327  0.1328
   77   668.281  247.67  0.0324  0.1619
   78   668.534  245.26  0.0372  0.1502
   79   668.787  241.19  0.0356  0.1335
   80   669.041  237.50  0.0293  0.1291
   81   669.295  235.28  0.0329  0.1750
   82   669.549  235.10  0.0291  0.1272
   83   669.803  234.29  0.0259  0.0938
   84   670.057  228.64  0.0333  0.1169
   85   670.312  224.18  0.0325  0.1029
   86   670.567  221.84  0.0284  0.0946
   87   670.822  221.70  0.0263  0.0995
   88   671.077  226.67  0.0237  0.1068
   89   671.333  231.15  0.0241  0.1333
   90   671.588  225.70  0.0230  0.0760
   91   671.844  220.26  0.0192  0.0581
   92   672.100  218.01  0.0145  0.0429
   93   672.357  219.60  0.0112  0.0385
   94   672.613  225.51  0.0184  0.1119
   95   672.870  231.25  0.0230  0.1771
   96   673.127  227.06  0.0172  0.0850
   97   673.384  221.16  0.0100  0.0362
   98   673.641  217.73  0.0124  0.0553
   99   673.899  218.58  0.0082  0.0275
  100   674.156  224.70  0.0125  0.0748
  101   674.414  231.11  0.0200  0.1581
  102   674.672  227.60  0.0180  0.0922
  103   674.931  220.86  0.0128  0.0542
  104   675.189  217.38  0.0092  0.0377
  105   675.448  218.23  0.0089  0.0350
  106   675.707  224.04  0.0119  0.0558
  107   675.966  231.16  0.0187  0.1426
  108   676.226  228.55  0.0166  0.1107
  109   676.485  221.43  0.0121  0.0556
  110   676.745  217.36  0.0091  0.0307
  111   677.005  217.86  0.0080  0.0286
  112   677.265  223.07  0.0128  0.0601
  113   677.526  230.95  0.0193  0.1320
  114   677.786  229.25  0.0167  0.0980
  115   678.047  221.64  0.0120  0.0528
  116   678.308  217.46  0.0108  0.0403
  117   678.569  217.98  0.0108  0.0488
  118   678.831  222.95  0.0142  0.0453
  119   679.093  231.31  0.0254  0.0956
  120   679.355  230.36  0.0222  0.1010
  121   679.617  222.07  0.0286  0.1247
  122   679.879  217.46  0.0096  0.0390
  123   680.141  217.74  0.0102  0.0395
  124   680.404  221.75  0.0107  0.0480
  125   680.667  230.55  0.0154  0.0739
  126   680.930  229.90  0.0168  0.0661
  127   681.194  221.99  0.0139  0.0589
  128   681.457  217.45  0.0140  0.0554
  129   681.721  217.38  0.0138  0.0551
  130   681.985  220.68  0.0105  0.0396
  131   687.601  219.30  0.0138  0.0485
  132   687.871  217.03  0.0098  0.0394
  133   688.140  216.20  0.0176  0.0787
  134   688.410  218.85  0.0210  0.0838
  135   688.680  228.62  0.0294  0.0923
  136   688.950  227.70  0.0402  0.1463
  137   689.220  221.54  0.0393  0.1292
  138   689.491  218.76  0.0351  0.1293
  139   689.762  217.61  0.0302  0.1096
  140   690.033  219.63  0.0187  0.0654
  141   690.304  227.23  0.0176  0.0688
  142   690.576  224.75  0.0204  0.0910
  143   690.847  218.90  0.0185  0.0621
  144   691.119  217.09  0.0124  0.0450
  145   691.391  216.58  0.0169  0.0656
  146   691.664  219.17  0.0138  0.0530
  147   691.936  226.31  0.0170  0.0567
  148   692.209  223.73  0.0213  0.0788
  149   692.482  219.19  0.0174  0.0787
  150   692.755  217.50  0.0124  0.0604
  151   693.029  216.66  0.0185  0.0751
  152   693.302  219.09  0.0086  0.0323
  153   693.576  224.59  0.0110  0.0477
  154   693.851  222.14  0.0173  0.0595
  155   694.125  218.25  0.0330  0.2732
  156   694.400  217.17  0.0149  0.1008
  157   694.674  217.11  0.0131  0.0486
  158   694.949  219.46  0.0140  0.0675
  159   695.225  223.30  0.0141  0.0550
  160   695.500  220.90  0.0215  0.0906
  161   695.776  218.98  0.0224  0.0900
  162   696.052  218.12  0.0267  0.1519
  163   696.328  217.38  0.0124  0.0361
  164   696.604  219.97  0.0302  0.1095
  165   696.881  222.13  0.0149  0.0890
  166   697.158  220.04  0.0286  0.1200
  167   697.435  219.93  0.0255  0.1125
  168   697.712  219.19  0.0226  0.0944
  169   697.990  217.87  0.0207  0.0715
  170   698.267  220.13  0.0148  0.0556
  171   698.545  221.00  0.0184  0.0911
  172   698.823  219.48  0.0250  0.1182
  173   699.102  220.80  0.0293  0.1319
  174   699.381  220.21  0.0156  0.0763
  175   699.659  218.80  0.0103  0.0406
  176   699.939  220.31  0.0122  0.0631
  177   700.218  220.08  0.0133  0.0584
  178   700.497  219.61  0.0367  0.1614
  179   700.777  221.27  0.0462  0.1767
  180   701.057  221.02  0.0189  0.0826
  181   701.337  219.98  0.0186  0.0978
  182   701.618  220.40  0.0166  0.0956
  183   701.899  220.31  0.0371  0.1305
  184   702.180  221.09  0.0352  0.1348
  185   702.461  221.47  0.0278  0.1292
  186   702.742  221.83  0.0190  0.0980
  187   703.024  221.82  0.0271  0.1184
  188   703.306  221.68  0.0194  0.0926
  189   703.588  222.02  0.0330  0.2254
  190   703.870  224.02  0.0524  0.2437
  191   704.153  223.54  0.0891  0.2926
  192   704.436  224.56  0.0594  0.2370
  193   704.719  223.27  0.0434  0.2406
  194   705.002  221.44  0.0602  0.2019
  195   705.285  223.61  0.0502  0.3330
  196   705.569  225.08  0.0432  0.2177
  197   705.853  225.27  0.0366  0.2333
  198   706.137  227.59  0.0246  0.1718
  199   706.422  224.22  0.0555  0.3844
  200   706.706  223.45  0.0514  0.3857
  201   706.991  226.99  0.0405  0.2611
  202   707.276  225.06  0.0338  0.2072
  203   707.562  226.14  0.0487  0.2947
  204   707.847  229.32  0.0416  0.2144
  205   708.133  225.10  0.0681  0.4069
  206   708.419  226.49  0.0687  0.3605
  207   708.706  227.53  0.0803  0.4244
  208   708.992  225.28  0.0777  0.3100
  209   709.279  229.93  0.0445  0.2571
  210   709.566  230.60  0.0553  0.3401
  211   709.853  226.62  0.0724  0.3982
  212   710.141  229.72  0.0699  0.2544
  213   710.428  227.28  0.0591  0.2130
  214   710.716  228.41  0.0580  0.2306
  215   711.005  233.76  0.0401  0.1363
  216   711.293  230.00  0.0515  0.3822
  217   711.582  229.45  0.0794  0.3872
  218   711.871  230.65  0.0849  0.2652
  219   712.160  226.86  0.0378  0.1394
  220   712.449  235.44  0.0360  0.1745
  221   712.739  239.26  0.0495  0.2446
  222   713.029  231.60  0.0902  0.5549
  223   713.319  230.81  0.0772  0.4251
  224   713.609  228.17  0.0605  0.3583
  225   713.900  231.05  0.0638  0.2257
  226   714.191  242.02  0.0512  0.2109
  227   714.482  240.09  0.0736  0.3475
  228   714.773  233.11  0.0792  0.4804
  229   715.065  230.69  0.0652  0.2823
  230   715.356  229.25  0.0791  0.3838
  231   715.648  240.00  0.0649  0.2177
  232   715.941  245.56  0.0315  0.1011
  233   716.233  239.70  0.0659  0.3444
  234   716.526  233.23  0.0579  0.3924
  235   716.819  228.99  0.0607  0.2481
  236   717.112  234.69  0.2344  0.7212
  237   717.406  243.10  0.0482  0.1537
  238   717.700  242.41  0.0847  0.2463
  239   717.994  235.33  0.0930  0.5493
  240   718.288  227.58  0.0704  0.3730
  241   718.582  225.26  0.0572  0.2563
  242   718.877  225.18  0.0551  0.2449
  243   719.172  222.82  0.0446  0.2196
  244   719.467  221.20  0.0482  0.2182
  245   719.763  222.09  0.0483  0.2762
  246   720.058  224.71  0.0446  0.1910
  247   720.354  227.90  0.0441  0.2105
  248   720.651  229.80  0.0445  0.1673
  249   720.947  225.83  0.0293  0.0977
  250   721.244  225.79  0.0530  0.2141
  251   721.541  233.99  0.0599  0.2653
  252   721.838  243.63  0.0293  0.1057
  253   722.135  242.24  0.0505  0.1879
  254   722.433  239.36  0.0808  0.3221
  255   722.731  246.94  0.0414  0.1299
  256   723.029  249.35  0.0443  0.1339
  257   723.327  248.83  0.0301  0.1071
  258   723.626  242.17  0.0653  0.2093
  259   723.925  235.62  0.0692  0.2717
  260   724.224  246.36  0.0494  0.1699
  261   724.524  253.55  0.0371  0.1178
  262   724.823  252.89  0.0603  0.2457
  263   725.123  245.52  0.0599  0.2183
  264   725.423  233.33  0.1421  0.4070
  265   725.724  241.36  0.1144  0.4144
  266   726.025  252.39  0.0181  0.0611
  267   726.326  252.60  0.0308  0.1023
  268   726.627  246.07  0.0357  0.0920
  269   726.928  232.68  0.0507  0.1819
  270   727.230  236.50  0.0593  0.2433
  271   727.532  249.78  0.0231  0.0680
  272   727.834  252.21  0.0198  0.0546
  273   728.136  246.51  0.0299  0.0926
  274   728.439  232.53  0.0590  0.2823
  275   728.055  248.75  0.0288  0.0674
  276   728.357  236.01  0.0570  0.2267
  277   728.660  230.74  0.0532  0.3075
  278   728.963  240.86  0.0946  0.4602
  279   729.266  245.37  0.0903  0.2823
  280   729.569  245.12  0.0666  0.3343
  281   729.873  235.47  0.0976  0.2831
  282   730.177  229.90  0.1203  0.4967
  283   730.481  239.78  0.1748  0.6580
  284   730.785  245.21  0.0979  0.2897
  285   731.090  245.64  0.0842  0.2583
  286   731.395  237.15  0.0705  0.3001
  287   731.700  230.65  0.0638  0.3453
  288   732.005  241.10  0.0476  0.1817
  289   732.311  249.25  0.0254  0.0849
  290   732.617  249.82  0.0222  0.0835
  291   732.923  238.66  0.0688  0.2417
  292   733.230  231.19  0.0603  0.2851
  293   733.536  241.58  0.0300  0.1254
  294   733.843  249.64  0.0282  0.0900
  295   734.150  250.45  0.0302  0.1036
  296   734.458  238.96  0.0907  0.2611
  297   734.765  231.81  0.0545  0.2876
  298   735.073  242.50  0.0335  0.1322
  299   735.381  249.82  0.0475  0.1644
  300   735.690  250.22  0.0257  0.0790
  301   735.999  238.80  0.0726  0.2378
  302   736.308  232.37  0.0656  0.3030
  303   736.617  242.28  0.0465  0.1426
  304   736.926  248.52  0.0266  0.1002
  305   737.236  249.51  0.0237  0.0938
  306   737.546  239.05  0.0605  0.2800
  307   737.856  234.26  0.0878  0.2992
  308   738.167  245.94  0.0386  0.1029
  309   738.477  251.54  0.0212  0.0879
  310   738.788  250.25  0.0238  0.0848
  311   739.100  238.80  0.0709  0.3435
  312   739.411  235.70  0.0993  0.3534
  313   739.723  247.27  0.0367  0.1322
  314   740.035  250.63  0.0355  0.1225
  315   740.347  245.38  0.0707  0.2137
  316   740.660  233.80  0.0880  0.4116
  317   740.973  230.96  0.0540  0.3100
  318   741.286  232.29  0.1211  0.6317
  319   741.599  233.86  0.2787  1.6591
  320   741.913  241.45  0.1963  0.9827
  321   742.227  236.91  0.0785  0.3824
  322   742.541  241.87  0.0694  0.3238
  323   742.855  254.45  0.0398  0.1394
  324   743.170  257.31  0.0218  0.0854
  325   743.485  249.49  0.0620  0.3110
  326   743.800  238.56  0.1211  0.3241
  327   744.116  245.43  0.1175  0.3431
  328   744.431  255.31  0.0455  0.1691
  329   744.747  253.78  0.0372  0.1263
  330   745.064  245.95  0.0851  0.3036
  331   745.380  241.19  0.0686  0.3548
  332   745.697  253.33  0.0798  0.2714
  333   746.014  261.74  0.0259  0.0885
  334   746.331  259.07  0.0191  0.0586
  335   746.649  247.51  0.0733  0.3263
  336   746.967  244.73  0.0702  0.3411
  337   747.285  258.02  0.0813  0.2591
  338   747.603  262.72  0.0270  0.1082
  339   747.922  256.66  0.0379  0.1345
  340   748.241  245.03  0.0763  0.3917
  341   748.560  248.13  0.0688  0.3229
  342   748.879  260.73  0.0496  0.1865
  343   749.199  262.80  0.0174  0.0589
  344   749.519  254.87  0.0429  0.1861
  345   749.839  246.93  0.0920  0.3827
  346   750.160  254.23  0.0808  0.2868
  347   750.481  262.01  0.0220  0.0625
  348   750.802  261.03  0.0389  0.1241
  349   751.123  252.42  0.0785  0.2510
  350   751.445  250.07  0.0711  0.3515
  351   751.766  259.96  0.0594  0.1642
  352   752.089  262.68  0.0420  0.2533
  353   752.411  258.37  0.0581  0.3075
  354   752.734  251.48  0.0814  0.2810
  355   753.057  254.60  0.0623  0.2281
  356   753.380  262.87  0.0324  0.1062
  357   753.703  262.08  0.0561  0.2924
  358   754.027  254.66  0.0805  0.2396
  359   754.351  249.84  0.0732  0.2160
  360   754.676  254.62  0.0906  0.3851
  361   755.000  262.90  0.0483  0.2049
  362   755.325  264.16  0.0159  0.0574
  363   755.650  256.73  0.0721  0.2174
  364   755.976  255.29  0.0783  0.2815
  365   756.301  263.17  0.0321  0.1261
  366   756.627  266.34  0.0239  0.0861
  367   756.954  262.10  0.0416  0.1422
  368   757.280  255.84  0.0832  0.2436
  369   757.607  259.65  0.0639  0.2075
  370   757.934  266.49  0.0357  0.1677
  371   758.261  267.62  0.0105  0.0358
  372   758.589  262.57  0.0579  0.1772
  373   758.917  260.28  0.0754  0.2214
  374   759.245  265.43  0.0373  0.1219
  375   759.573  268.50  0.0074  0.0263
  376   759.902  266.68  0.0275  0.0974
  377   760.231  261.20  0.0829  0.2988
  378   760.561  262.72  0.0676  0.2037
  379   760.890  267.62  0.0140  0.0534
  380   761.220  268.66  0.0158  0.0565
  381   761.550  264.94  0.0530  0.2019
  382   761.881  262.56  0.0794  0.2822
  383   762.211  266.84  0.0294  0.1100
  384   762.542  268.76  0.0068  0.0288
  385   762.873  267.97  0.0293  0.1261
  386   763.205  263.93  0.0673  0.2394
  387   763.537  265.31  0.0502  0.2090
  388   763.869  268.46  0.0080  0.0275
  389   764.201  268.67  0.0075  0.0252
  390   764.534  266.16  0.0406  0.1903
  391   764.867  264.82  0.0540  0.2240
  392   765.200  267.84  0.0211  0.0922
  393   765.534  269.13  0.0060  0.0316
  394   765.867  268.54  0.0189  0.0820
  395   766.202  266.07  0.0305  0.1294
  396   766.536  267.21  0.0238  0.1011
  397   766.871  268.78  0.0193  0.0782
  398   767.205  268.03  0.0186  0.0801
  399   767.541  267.17  0.0223  0.0808
  400   767.876  267.05  0.0193  0.0718
  401   768.212  268.38  0.0134  0.0505
  402   768.548  267.56  0.0157  0.0789
  403   768.884  264.46  0.0214  0.0803
  404   769.221  265.27  0.0179  0.0785
  405   769.558  267.17  0.0154  0.0470
  406   769.895  266.14  0.0193  0.1261
  407   770.233  265.82  0.0220  0.1439
  408   770.570  268.19  0.0122  0.0470
  409   770.909  267.93  0.0178  0.0680
  410   771.247  267.90  0.0129  0.0458
  411   771.586  268.50  0.0112  0.0437
  412   771.925  269.14  0.0114  0.0444
  413   772.264  269.24  0.0102  0.0391
  414   772.603  268.67  0.0112  0.0429
  415   772.943  268.99  0.0106  0.0415
  416   773.283  269.33  0.0068  0.0290
  417   773.624  269.60  0.0097  0.0393
  418   773.964  268.80  0.0093  0.0325
  419   774.305  268.50  0.0127  0.0489
  420   774.647  269.17  0.0102  0.0405
  421   774.988  268.68  0.0141  0.0610
  422   775.330  265.51  0.0142  0.0612
  423   775.672  263.86  0.0188  0.0859
  424   776.015  267.44  0.0154  0.0785
  425   776.357  268.32  0.0127  0.0475
  426   776.700  264.85  0.0184  0.0729
  427   777.044  262.21  0.0220  0.0902
  428   777.387  265.93  0.0123  0.0519
  429   777.731  268.86  0.0094  0.0335
  430   778.076  269.39  0.0100  0.0402
  431   778.420  269.27  0.0087  0.0353
  432   778.765  268.11  0.0125  0.0458
  433   779.110  265.83  0.0171  0.0843
  434   779.455  266.37  0.0106  0.0391
  435   779.801  269.18  0.0060  0.0287
  436   780.147  269.52  0.0062  0.0234
  437   780.493  269.19  0.0066  0.0205
  438   780.840  269.66  0.0059  0.0214
  439   781.187  269.90  0.0073  0.0338
  440   781.534  269.96  0.0054  0.0217
  441   781.881  269.21  0.0074  0.0294
  442   789.263  270.34  0.0034  0.0171
  443   789.616  270.25  0.0036  0.0167
  444   789.970  270.12  0.0038  0.0180
  445   790.325  270.24  0.0029  0.0141
  446   790.680  270.13  0.0034  0.0151
  447   791.034  269.01  0.0175  0.0801
  448   791.390  261.29  0.0930  0.3349
  449   791.745  256.12  0.0727  0.2919
  450   792.101  261.25  0.0357  0.1543
  451   792.457  266.13  0.0178  0.0746
  452   792.814  268.34  0.0093  0.0327
  453   793.171  268.89  0.0079  0.0239
  454   793.528  267.28  0.0076  0.0288
  455   793.885  264.83  0.0162  0.0599
  456   794.243  267.03  0.0106  0.0441
  457   794.601  269.20  0.0078  0.0315
  458   794.960  268.94  0.0067  0.0318
  459   795.318  266.91  0.0102  0.0508
  460   795.677  261.38  0.0220  0.0918
  461   796.036  260.57  0.0184  0.0641
  462   796.396  266.37  0.0099  0.0513
  463   796.756  268.04  0.0067  0.0294
  464   797.116  267.81  0.0074  0.0400
  465   797.477  266.74  0.0106  0.0380
  466   797.837  266.69  0.0094  0.0467
  467   798.199  263.39  0.0256  0.0986
  468   798.560  257.65  0.0229  0.0902
  469   798.922  261.18  0.0184  0.0660
  470   799.284  266.95  0.0117  0.0473
  471   799.646  269.02  0.0068  0.0238
  472   800.009  268.94  0.0069  0.0245
  473   800.372  269.71  0.0052  0.0183
  474   800.736  270.32  0.0031  0.0113
  475   801.099  270.18  0.0038  0.0131
  476   801.463  269.35  0.0076  0.0277
  477   801.827  269.59  0.0071  0.0243
  478   802.192  270.31  0.0055  0.0202
  479   802.557  269.32  0.0078  0.0582
  480   802.922  266.25  0.0148  0.0628
  481   803.288  264.11  0.0186  0.0669
  482   803.654  265.67  0.0135  0.0472
  483   804.020  269.05  0.0075  0.0470
  484   804.386  269.72  0.0069  0.0269
  485   804.753  269.48  0.0081  0.0294
  486   805.120  270.31  0.0046  0.0154
  487   805.488  270.57  0.0051  0.0233
  488   805.856  269.69  0.0069  0.0389
  489   806.224  269.07  0.0090  0.0387
  490   806.592  269.84  0.0058  0.0273
  491   806.961  270.47  0.0039  0.0357
  492   807.330  270.36  0.0045  0.0148
  493   807.699  268.55  0.0076  0.0363
  494   808.069  265.78  0.0171  0.0796
  495   808.439  266.81  0.0093  0.0383
  496   808.809  269.64  0.0047  0.0435
  497   809.180  269.72  0.0052  0.0186
  498   809.551  269.95  0.0057  0.0199
  499   809.923  270.74  0.0020  0.0081
  500   810.294  270.82  0.0018  0.0079
  501   810.666  270.32  0.0041  0.0138
  502   811.039  270.13  0.0050  0.0168
  503   811.411  270.71  0.0024  0.0081
  504   811.784  270.84  0.0026  0.0083
  505   812.157  270.46  0.0036  0.0115
  506   812.531  270.15  0.0048  0.0173
  507   812.905  270.50  0.0033  0.0124
  508   813.279  270.26  0.0046  0.0497
  509   813.654  267.79  0.0086  0.0536
  510   814.029  266.65  0.0106  0.0400
  511   814.404  267.05  0.0132  0.0443
  512   814.780  268.49  0.0109  0.0398
  513   815.155  270.26  0.0069  0.0287
  514   815.532  270.21  0.0052  0.0219
  515   815.908  270.50  0.0042  0.0158
  516   816.285  270.75  0.0069  0.0215
  517   816.662  270.71  0.0066  0.0195
  518   817.040  270.52  0.0039  0.0134
  519   817.418  270.65  0.0036  0.0144
  520   817.796  270.91  0.0038  0.0180
  521   818.174  270.89  0.0043  0.0217
  522   818.553  270.67  0.0045  0.0203
  523   818.933  270.72  0.0054  0.0260
  524   819.312  270.93  0.0049  0.0248
  525   819.692  270.94  0.0052  0.0262
  526   820.072  270.78  0.0052  0.0257
  527   820.453  270.78  0.0053  0.0255
  528   820.834  270.93  0.0036  0.0145
  529   821.215  270.97  0.0038  0.0168
  530   821.597  270.87  0.0037  0.0158
  531   821.978  270.84  0.0046  0.0213
  532   822.361  270.93  0.0047  0.0226
  533   822.743  270.95  0.0053  0.0267
  534   823.126  270.93  0.0052  0.0270
  535   823.509  270.93  0.0050  0.0251
  536   823.893  271.02  0.0047  0.0240
  537   824.277  270.99  0.0047  0.0238
  538   824.661  270.39  0.0104  0.0516
  539   825.046  268.80  0.0067  0.0394
  540   825.431  269.37  0.0061  0.0430
  541   825.816  270.85  0.0045  0.0195
  542   826.201  270.99  0.0038  0.0177
  543   826.587  270.81  0.0053  0.0181
  544   826.974  270.13  0.0067  0.0507
  545   827.360  268.50  0.0082  0.0542
  546   827.747  267.61  0.0098  0.0420
  547   828.135  269.56  0.0065  0.0445
  548   828.522  270.78  0.0048  0.0169
  549   828.910  270.99  0.0043  0.0204
  550   829.299  271.06  0.0038  0.0181
  551   829.687  271.10  0.0038  0.0175
  552   830.077  271.13  0.0035  0.0156
  553   830.466  271.14  0.0037  0.0165
  554   830.856  271.15  0.0035  0.0150
  555   831.246  271.16  0.0033  0.0147
  556   831.636  271.18  0.0031  0.0130
  557   832.027  271.18  0.0030  0.0129
  558   832.418  271.16  0.0027  0.0121
  559   832.809  271.15  0.0028  0.0122
  560   833.201  271.17  0.0025  0.0105
  561   833.593  271.18  0.0024  0.0105
  562   833.986  271.17  0.0022  0.0094
  563   834.379  271.15  0.0022  0.0091
  564   834.772  271.13  0.0026  0.0085
  565   835.165  270.83  0.0044  0.0357
  566   835.559  270.49  0.0062  0.0500
  567   835.954  270.84  0.0040  0.0361
  568   836.348  271.10  0.0025  0.0085
  569   836.743  271.11  0.0025  0.0101
  570   837.139  271.11  0.0023  0.0097
  571   837.534  271.08  0.0023  0.0096
  572   837.930  271.01  0.0024  0.0082
  573   838.327  271.00  0.0023  0.0087
  574   838.723  271.01  0.0022  0.0080
  575   839.120  270.82  0.0034  0.0147
  576   839.518  269.17  0.0080  0.0524
  577   839.916  267.27  0.0118  0.0436
  578   840.314  268.74  0.0095  0.0472
  579   840.712  270.42  0.0055  0.0581
  580   841.111  270.71  0.0050  0.0198
  581   841.510  270.31  0.0064  0.0302
  582   841.910  269.79  0.0035  0.0451
  583   842.310  270.31  0.0065  0.0290
  584   842.710  270.71  0.0013  0.0045
  585   843.111  270.71  0.0013  0.0045
  586   843.512  270.67  0.0012  0.0040
  587   843.913  270.63  0.0012  0.0039
  588   844.315  270.58  0.0013  0.0044
  589   844.717  270.54  0.0015  0.0056
  590   845.119  270.50  0.0016  0.0052
  591   845.522  270.42  0.0035  0.0120
  592   845.925  270.38  0.0036  0.0122
  593   846.329  270.39  0.0015  0.0053
  594   846.732  270.39  0.0013  0.0045
  595   847.137  270.40  0.0013  0.0047
  596   847.541  270.39  0.0014  0.0051
  597   847.946  270.40  0.0014  0.0056
  598   848.352  270.42  0.0015  0.0064
  599   848.757  270.23  0.0021  0.0088
  600   849.163  268.69  0.0071  0.0679
  601   849.570  266.70  0.0107  0.0673
  602   849.977  268.38  0.0076  0.0715
  603   850.384  270.12  0.0027  0.0114
  604   850.791  270.30  0.0032  0.0133
  605   851.199  270.30  0.0036  0.0145
  606   851.607  270.10  0.0038  0.0133
  607   852.016  268.06  0.0085  0.0663
  608   852.425  264.93  0.0140  0.0495
  609   851.490  270.27  0.0038  0.0136
  610   851.797  269.91  0.0049  0.0184
  611   852.104  267.46  0.0093  0.0648
  612   852.411  264.03  0.0146  0.0499
  613   852.718  264.66  0.0171  0.0640
  614   853.026  267.50  0.0133  0.0530
  615   853.334  269.09  0.0087  0.0692
  616   853.642  269.88  0.0081  0.0918
  617   853.950  270.27  0.0076  0.0283
  618   854.259  268.53  0.0108  0.0776
  619   854.567  266.32  0.0173  0.0582
  620   854.877  268.21  0.0116  0.0701
  621   855.186  270.45  0.0065  0.0299
  622   855.495  270.89  0.0039  0.0176
  623   855.805  271.01  0.0029  0.0131
  624   856.115  271.09  0.0022  0.0099
  625   856.426  271.13  0.0018  0.0078
  626   856.736  271.16  0.0015  0.0063
  627   857.047  271.18  0.0013  0.0056
  628   857.358  271.20  0.0013  0.0056
  629   857.669  271.22  0.0013  0.0055
  630   857.981  271.22  0.0019  0.0072
  631   858.292  270.90  0.0051  0.0424
  632   858.605  270.71  0.0073  0.0554
  633   858.917  271.10  0.0069  0.0339
  634   859.229  271.22  0.0029  0.0108
  635   859.542  271.03  0.0038  0.0410
  636   859.855  271.06  0.0036  0.0392
  637   860.168  271.25  0.0025  0.0080
  638   860.482  271.28  0.0010  0.0040
  639   860.795  271.28  0.0011  0.0041
  640   861.109  271.27  0.0010  0.0039
  641   861.424  271.29  0.0008  0.0025
  642   861.738  271.29  0.0008  0.0027
  643   862.053  271.27  0.0008  0.0024
  644   862.368  271.26  0.0008  0.0037
  645   862.683  271.26  0.0008  0.0033
  646   862.998  271.26  0.0008  0.0034
  647   863.314  271.25  0.0009  0.0038
  648   863.630  271.24  0.0011  0.0043
  649   863.946  271.20  0.0014  0.0056
  650   864.263  271.14  0.0021  0.0091
  651   864.579  270.78  0.0088  0.0404
  652   864.896  269.90  0.0083  0.0802
  653   865.214  268.84  0.0110  0.0843
  654   865.531  268.86  0.0116  0.0738
  655   865.849  270.51  0.0063  0.0699
  656   866.167  271.12  0.0027  0.0114
  657   866.485  271.17  0.0014  0.0059
  658   866.803  271.21  0.0010  0.0041
  659   867.122  271.23  0.0009  0.0039
  660   867.441  271.21  0.0009  0.0038
  661   867.760  271.20  0.0008  0.0035
  662   868.080  271.21  0.0008  0.0031
  663   868.399  271.21  0.0007  0.0029
  664   868.719  271.22  0.0007  0.0027
  665   869.040  271.22  0.0008  0.0030
  666   869.360  271.21  0.0008  0.0030
  667   869.681  271.19  0.0009  0.0041
  668   870.002  271.17  0.0009  0.0042
  669   870.323  271.11  0.0012  0.0049
  670   870.645  270.82  0.0026  0.0152
  671   870.966  268.83  0.0087  0.0828
  672   871.288  267.17  0.0116  0.0756
  673   871.611  269.41  0.0077  0.0867
  674   871.933  270.90  0.0020  0.0123
  675   872.256  271.10  0.0012  0.0054
  676   872.579  271.17  0.0010  0.0046
  677   872.902  271.21  0.0010  0.0041
  678   873.226  271.22  0.0009  0.0036
  679   873.550  271.23  0.0008  0.0030
  680   873.874  271.24  0.0007  0.0028
  681   874.198  271.24  0.0008  0.0031
  682   874.523  271.24  0.0008  0.0029
  683   874.847  271.25  0.0007  0.0026
  684   875.173  271.25  0.0008  0.0031
  685   875.498  271.23  0.0008  0.0035
  686   875.823  271.18  0.0012  0.0064
  687   876.149  271.18  0.0011  0.0057
  688   876.476  271.22  0.0008  0.0037
  689   876.802  271.20  0.0008  0.0038
  690   877.129  271.19  0.0009  0.0040
  691   877.455  271.18  0.0011  0.0054
  692   877.782  271.07  0.0019  0.0096
  693   878.110  270.35  0.0066  0.0859
  694   878.438  268.30  0.0106  0.0838
  695   878.766  268.42  0.0091  0.0825
  696   879.094  270.25  0.0043  0.0285
  697   879.422  271.04  0.0017  0.0083
  698   879.751  271.22  0.0011  0.0053
  699   880.080  271.23  0.0009  0.0044
  700   880.409  271.18  0.0009  0.0044
  701   880.739  270.77  0.0059  0.0296
  702   881.069  270.16  0.0043  0.0641
  703   881.399  270.63  0.0071  0.0344
  704   881.729  271.10  0.0009  0.0043
  705   882.059  271.12  0.0010  0.0047
  706   882.390  271.08  0.0016  0.0070
  707   882.722  270.87  0.0074  0.0248
  708   883.053  270.49  0.0076  0.0900
  709   883.385  270.27  0.0127  0.0612
  710   883.716  268.88  0.0102  0.0922
  711   884.048  269.22  0.0093  0.0877
  712   884.381  270.73  0.0047  0.0307
  713   884.714  270.99  0.0016  0.0081
  714   885.047  271.02  0.0011  0.0045
  715   885.380  271.06  0.0010  0.0042
  716   885.713  271.09  0.0010  0.0048
  717   886.047  271.05  0.0010  0.0040
  718   886.381  270.95  0.0011  0.0049
  719   886.715  270.36  0.0085  0.0358
  720   887.050  267.50  0.0088  0.0740
  721   887.385  267.56  0.0087  0.0764
  722   887.720  270.17  0.0106  0.0403
  723   888.055  270.74  0.0027  0.0110
  724   888.391  269.92  0.0093  0.0932
  725   888.727  269.62  0.0106  0.0956
  726   889.063  270.62  0.0101  0.0485
  727   889.400  271.00  0.0023  0.0102
  728   889.736  270.80  0.0060  0.0207
  729   890.073  270.47  0.0067  0.0867
  730   890.410  270.75  0.0067  0.0223
  731   890.748  271.00  0.0021  0.0095
  732   891.086  270.47  0.0058  0.0684
  733   891.424  270.34  0.0063  0.0727
  734   891.762  270.96  0.0031  0.0122
  735   892.101  271.14  0.0009  0.0041
  736   892.440  271.18  0.0008  0.0035
  737   892.779  271.22  0.0008  0.0032
  738   893.118  271.22  0.0007  0.0027
  739   893.458  271.24  0.0007  0.0023
  740   893.798  271.26  0.0005  0.0021
  741   894.138  271.27  0.0006  0.0020
  742   894.479  271.27  0.0006  0.0022
  743   894.820  271.25  0.0007  0.0022
  744   895.161  271.21  0.0007  0.0027
  745   895.502  271.13  0.0008  0.0035
  746   895.844  270.96  0.0012  0.0056
  747   896.185  270.85  0.0026  0.0099
  748   896.528  271.04  0.0040  0.0149
  749   896.870  271.30  0.0022  0.0079
  750   897.213  271.34  0.0021  0.0096
  751   897.556  271.08  0.0076  0.0253
  752   897.899  271.09  0.0065  0.0226
  753   898.243  271.32  0.0017  0.0073
  754   898.587  271.37  0.0010  0.0040
  755   898.931  271.39  0.0010  0.0036
  756   899.275  271.42  0.0010  0.0032
  757   899.620  271.44  0.0007  0.0024
  758   899.965  271.44  0.0005  0.0018
  759   900.310  271.42  0.0007  0.0026
  760   900.655  271.43  0.0007  0.0026
  761   901.001  271.45  0.0007  0.0024
  762   901.347  271.46  0.0006  0.0020
  763   901.694  271.46  0.0006  0.0021
  764   902.040  271.42  0.0009  0.0042
  765   902.387  271.39  0.0017  0.0074
  766   902.734  271.41  0.0019  0.0080
  767   903.082  271.44  0.0012  0.0046
  768   903.429  271.44  0.0008  0.0026
  769   903.777  271.42  0.0009  0.0032
  770   911.236  271.07  0.0028  0.0107
  771   911.590  271.07  0.0016  0.0070
  772   911.945  271.06  0.0014  0.0058
  773   912.301  271.04  0.0014  0.0055
  774   912.656  271.06  0.0011  0.0045
  775   913.012  271.04  0.0015  0.0058
  776   913.368  270.99  0.0025  0.0097
  777   913.725  270.55  0.0068  0.0792
  778   914.082  270.38  0.0084  0.1006
  779   914.439  270.77  0.0062  0.0866
  780   914.796  270.89  0.0045  0.0609
  781   915.154  271.01  0.0025  0.0093
  782   915.512  271.03  0.0013  0.0050
  783   915.870  271.04  0.0012  0.0042
  784   916.229  271.06  0.0012  0.0043
  785   916.588  271.05  0.0016  0.0057
  786   916.947  271.09  0.0013  0.0048
  787   917.306  271.08  0.0012  0.0049
  788   917.666  271.09  0.0013  0.0054
  789   918.026  270.95  0.0045  0.0186
  790   918.386  270.40  0.0079  0.0922
  791   918.747  270.58  0.0060  0.0714
  792   919.108  271.01  0.0020  0.0088
  793   919.469  270.98  0.0013  0.0054
  794   919.830  271.00  0.0013  0.0057
  795   920.192  271.13  0.0014  0.0061
  796   920.554  271.01  0.0023  0.0091
  797   920.917  270.58  0.0053  0.0207
  798   921.279  269.87  0.0088  0.1176
  799   921.642  269.38  0.0154  0.0768
  800   922.005  268.18  0.0136  0.1197
  801   922.369  268.63  0.0125  0.1110
  802   922.733  269.80  0.0050  0.0226
  803   923.097  270.08  0.0034  0.0144
  804   923.461  271.00  0.0018  0.0080
  805   923.826  271.33  0.0012  0.0056
  806   924.191  271.21  0.0013  0.0065
  807   924.556  270.42  0.0073  0.1056
  808   924.922  268.75  0.0106  0.1276
  809   925.288  269.54  0.0093  0.1278
  810   925.654  270.88  0.0020  0.0092
  811   926.020  271.08  0.0011  0.0052
  812   926.387  271.13  0.0010  0.0042
  813   926.755  270.97  0.0019  0.0074
  814   927.122  270.85  0.0025  0.0087
  815   927.490  271.02  0.0013  0.0050
  816   927.858  271.08  0.0011  0.0044
  817   928.226  271.02  0.0019  0.0076
  818   928.594  270.71  0.0070  0.0279
  819   928.963  270.41  0.0112  0.0419
  820   929.333  270.77  0.0063  0.0250
  821   929.702  271.04  0.0015  0.0063
  822   930.072  271.06  0.0013  0.0053
  823   930.442  271.06  0.0013  0.0056
  824   930.812  270.78  0.0029  0.0117
  825   931.183  270.82  0.0030  0.0112
  826   931.554  271.16  0.0017  0.0066
  827   931.926  271.24  0.0026  0.0094
  828   932.297  271.28  0.0035  0.0124
  829   932.669  271.03  0.0054  0.0194
  830   933.041  270.86  0.0052  0.0524
  831   933.414  271.32  0.0065  0.0207
  832   933.787  271.54  0.0015  0.0049
  833   934.160  271.59  0.0011  0.0040
  834   934.533  271.34  0.0026  0.0098
  835   934.907  271.04  0.0045  0.0174
  836   935.281  271.44  0.0025  0.0093
  837   935.656  271.75  0.0009  0.0033
  838   936.030  271.77  0.0012  0.0043
  839   936.405  271.52  0.0028  0.0106
  840   936.780  271.09  0.0055  0.0224
  841   937.156  271.42  0.0057  0.0202
  842   937.532  271.77  0.0040  0.0130
  843   937.908  271.84  0.0023  0.0079
  844   938.285  271.54  0.0036  0.0130
  845   938.662  271.01  0.0062  0.0239
  846   939.039  271.43  0.0039  0.0151
  847   939.416  271.89  0.0012  0.0046
  848   939.794  271.89  0.0013  0.0056
  849   940.172  271.46  0.0045  0.0179
  850   940.550  270.79  0.0084  0.0333
  851   940.929  270.96  0.0111  0.0401
  852   941.308  271.50  0.0080  0.0275
  853   941.688  271.86  0.0020  0.0078
  854   942.067  271.27  0.0056  0.0212
  855   942.447  270.83  0.0082  0.0317
  856   942.827  271.62  0.0033  0.0105
  857   943.208  271.93  0.0013  0.0046
  858   943.589  271.86  0.0021  0.0077
  859   943.970  270.88  0.0089  0.0328
  860   944.352  270.69  0.0100  0.0373
  861   944.734  271.31  0.0110  0.0359
  862   945.116  271.58  0.0088  0.0309
  863   945.498  271.64  0.0035  0.0113
  864   945.881  270.71  0.0095  0.0367
  865   946.264  271.01  0.0072  0.0278
  866   946.648  271.71  0.0018  0.0085
  867   947.031  271.77  0.0017  0.0081
  868   947.415  271.01  0.0079  0.0299
  869   947.800  269.46  0.0135  0.0983
  870   948.184  268.09  0.0145  0.1097
  871   948.569  269.58  0.0131  0.1577
  872   948.955  271.42  0.0034  0.0150
  873   949.340  270.63  0.0093  0.0365
  874   949.726  270.92  0.0084  0.0302
  875   950.113  271.89  0.0020  0.0070
  876   950.499  271.94  0.0020  0.0064
  877   950.886  271.14  0.0067  0.0244
  878   951.273  270.72  0.0089  0.0343
  879   951.661  271.64  0.0035  0.0103
  880   952.049  271.97  0.0021  0.0064
  881   952.437  271.61  0.0039  0.0128
  882   952.825  270.61  0.0094  0.0357
  883   953.214  270.27  0.0128  0.1209
  884   953.604  271.11  0.0118  0.1470
  885   953.993  271.65  0.0051  0.0195
  886   954.383  270.92  0.0072  0.0276
  887   954.773  270.82  0.0076  0.0241
  888   955.163  270.71  0.0109  0.1512
  889   955.554  270.71  0.0174  0.0754
  890   955.945  270.89  0.0094  0.0326
  891   956.337  271.19  0.0068  0.0222
  892   956.729  271.91  0.0051  0.0155
  893   957.121  272.03  0.0051  0.0165
  894   957.513  271.64  0.0057  0.0178
  895   957.906  271.46  0.0066  0.0204
  896   958.299  271.92  0.0070  0.0209
  897   958.692  271.97  0.0087  0.0273
  898   959.086  271.52  0.0140  0.0403
  899   959.480  271.28  0.0112  0.0362
  900   959.875  271.68  0.0077  0.0275
  901   960.269  271.95  0.0084  0.0229
  902   960.664  271.99  0.0086  0.0253
  903   961.060  272.00  0.0066  0.0204
  904   961.455  271.90  0.0062  0.0193
  905   961.851  271.83  0.0066  0.0234
  906   962.248  271.99  0.0058  0.0182
  907   962.644  272.04  0.0054  0.0197
  908   963.041  271.66  0.0055  0.0169
  909   963.439  271.65  0.0059  0.0183
  910   963.836  272.00  0.0052  0.0165
  911   964.234  271.91  0.0059  0.0206
  912   964.633  271.30  0.0063  0.0244
  913   965.031  271.45  0.0056  0.0194
  914   965.431  271.85  0.0061  0.0232
  915   965.830  271.28  0.0080  0.0334
  916   966.230  270.77  0.0087  0.0311
  917   966.629  271.05  0.0104  0.0323
  918   967.030  271.36  0.0102  0.0340
  919   967.431  271.02  0.0062  0.0232
  920   967.831  270.91  0.0084  0.0280
  921   968.233  271.78  0.0048  0.0122
  922   968.635  271.71  0.0051  0.0177
  923   969.037  270.76  0.0077  0.0297
  924   969.439  271.13  0.0062  0.0221
  925   969.842  271.85  0.0076  0.0310
  926   970.245  270.91  0.0125  0.0460
  927   970.648  270.50  0.0144  0.0573
  928   971.052  271.05  0.0097  0.0353
  929   971.456  270.46  0.0149  0.0541
  930   971.860  270.05  0.0143  0.0456
  931   972.265  271.00  0.0079  0.0359
  932   972.670  271.68  0.0091  0.0387
  933   973.076  270.38  0.0136  0.0503
  934   973.481  269.74  0.0129  0.1217
  935   973.887  270.54  0.0168  0.0697
  936   974.294  270.51  0.0118  0.0443
  937   973.818  270.37  0.0177  0.0709
  938   974.225  270.59  0.0126  0.0437
  939   974.631  270.50  0.0119  0.0537
  940   975.039  271.26  0.0102  0.0462
  941   975.446  271.09  0.0126  0.1068
  942   975.854  269.19  0.0210  0.1543
  943   976.262  270.00  0.0184  0.1197
  944   976.670  271.47  0.0117  0.0475
  945   977.079  270.29  0.0149  0.0715
  946   977.488  270.08  0.0150  0.0632
  947   977.898  271.28  0.0167  0.0804
  948   978.308  270.84  0.0156  0.0647
  949   978.718  270.77  0.0205  0.0877
  950   979.128  271.38  0.0219  0.0907
  951   979.539  271.02  0.0153  0.0661
  952   979.950  271.06  0.0166  0.0733
  953   980.362  271.36  0.0225  0.1051
  954   980.774  270.85  0.0232  0.1042
  955   981.186  270.90  0.0230  0.0989
  956   981.599  270.99  0.0273  0.1321
  957   982.011  270.66  0.0273  0.1291
  958   982.425  271.14  0.0214  0.0861
  959   982.838  271.25  0.0232  0.1121
  960   983.252  270.75  0.0332  0.1792
  961   983.667  270.84  0.0326  0.1715
  962   984.081  270.70  0.0302  0.1524
  963   984.496  270.35  0.0386  0.1996
  964   984.912  270.77  0.0373  0.2052
  965   985.327  271.04  0.0264  0.1276
  966   985.743  270.76  0.0366  0.1959
  967   986.160  270.55  0.0375  0.1937
  968   986.576  270.52  0.0364  0.1828
  969   986.993  270.48  0.0392  0.1883
  970   987.411  270.12  0.0438  0.2764
  971   987.829  270.36  0.0400  0.2255
  972   988.247  270.80  0.0369  0.1931
  973   988.665  270.15  0.0404  0.2506
  974   989.084  269.57  0.0496  0.3244
  975   989.503  270.00  0.0446  0.2566
  976   989.923  269.71  0.0494  0.3527
  977   990.343  269.29  0.0562  0.4185
  978   990.763  270.14  0.0418  0.2405
  979   991.183  270.03  0.0410  0.2433
  980   991.604  268.76  0.0437  0.2696
  981   992.026  268.79  0.0425  0.2418
  982   992.447  269.36  0.0499  0.3492
  983   992.869  268.30  0.0439  0.2284
  984   993.292  268.76  0.0433  0.2553
  985   993.714  269.74  0.0433  0.2693
  986   994.137  267.92  0.0406  0.1685
  987   994.561  267.22  0.0423  0.1883
  988   994.984  268.63  0.0457  0.2899
  989   995.409  267.15  0.0463  0.1872
  990   995.833  267.31  0.0443  0.1850
  991   996.258  269.14  0.0480  0.3278
  992   996.683  267.45  0.0452  0.1750
  993   997.109  266.03  0.0549  0.2644
  994   997.535  267.36  0.0396  0.1624
  995   997.961  265.93  0.0547  0.2594
  996   998.388  265.67  0.0557  0.2616
  997   998.814  267.36  0.0332  0.1274
  998   999.242  265.43  0.0518  0.2453
  999   999.669  263.62  0.0626  0.2396
 1000  1000.098  265.00  0.0487  0.2166
 1001  1000.526  264.02  0.0559  0.1924
 1002  1000.955  264.19  0.0563  0.2475
 1003  1001.384  266.23  0.0450  0.2106
 1004  1001.813  264.31  0.0647  0.2509
 1005  1002.243  262.76  0.0707  0.2440
 1006  1002.674  263.90  0.0583  0.2403
 1007  1003.104  262.43  0.0597  0.1979
 1008  1003.535  262.31  0.0542  0.2002
 1009  1003.966  263.29  0.0520  0.2097
 1010  1004.398  261.39  0.0625  0.1849
 1011  1004.830  260.69  0.0644  0.1756
 1012  1005.263  261.42  0.0591  0.1764
 1013  1005.695  260.07  0.0562  0.1522
 1014  1006.129  260.54  0.0492  0.1387
 1015  1006.562  261.32  0.0585  0.1772
 1016  1006.996  258.74  0.0764  0.2369
 1017  1007.430  258.41  0.0668  0.2062
 1018  1007.865  259.45  0.0546  0.1736
 1019  1008.300  258.78  0.0608  0.1879
 1020  1008.735  259.59  0.0697  0.2026
 1021  1009.171  258.60  0.0794  0.2653
 1022  1009.607  255.89  0.0881  0.3651
 1023  1010.044  255.76  0.0830  0.3291
 1024  1010.480  255.50  0.0683  0.2467
 1025  1010.918  255.25  0.0782  0.3184
 1026  1011.355  256.78  0.0724  0.2456
 1027  1011.793  254.08  0.0797  0.3162
 1028  1012.231  253.01  0.0681  0.2712
 1029  1012.670  255.57  0.0522  0.2053
 1030  1013.109  254.76  0.0549  0.2333
 1031  1013.549  254.45  0.0628  0.2579
 1032  1013.988  252.35  0.0652  0.3051
 1033  1014.429  249.93  0.0761  0.2897
 1034  1014.869  252.89  0.0690  0.2920
 1035  1015.310  253.54  0.0642  0.2899
 1036  1015.751  252.99  0.0659  0.3227
 1037  1016.193  251.72  0.0598  0.3377
 1038  1016.635  249.93  0.0620  0.3335
 1039  1017.078  251.71  0.0513  0.2603
 1040  1017.520  250.78  0.0643  0.3420
 1041  1017.964  248.93  0.0732  0.3920
 1042  1018.407  248.63  0.0645  0.3398
 1043  1018.851  247.32  0.0616  0.3267
 1044  1019.296  249.82  0.0550  0.3049
 1045  1019.740  249.79  0.0553  0.3056
 1046  1020.185  247.67  0.0580  0.3440
 1047  1020.631  247.05  0.0710  0.3161
 1048  1021.077  246.30  0.0736  0.3675
 1049  1021.523  248.36  0.0695  0.3636
 1050  1021.969  248.15  0.0724  0.3440
 1051  1022.416  246.97  0.0771  0.4390
 1052  1022.864  246.23  0.0750  0.4148
 1053  1023.312  246.87  0.0849  0.4385
 1054  1023.760  247.93  0.0849  0.3859
 1055  1024.208  247.00  0.1014  0.3614
 1056  1024.657  245.93  0.1001  0.4165
 1057  1025.106  245.51  0.0991  0.4095
 1058  1025.556  247.68  0.1122  0.4078
 1059  1026.006  247.83  0.1044  0.3653
 1060  1026.457  246.99  0.1191  0.3904
 1061  1026.907  245.40  0.1158  0.4957
 1062  1027.359  246.01  0.1238  0.4954
 1063  1027.810  247.23  0.1204  0.3786
 1064  1028.262  246.59  0.1104  0.3212
 1065  1028.714  245.22  0.1201  0.3546
 1066  1029.167  244.63  0.1332  0.4696
 1067  1029.620  246.92  0.1325  0.4076
 1068  1030.074  248.26  0.1174  0.3568
 1069  1030.528  248.31  0.1325  0.4367
 1070  1030.982  246.16  0.1388  0.3954
 1071  1031.437  246.50  0.1128  0.4261
 1072  1031.892  247.73  0.0941  0.3914
 1073  1032.348  247.71  0.0928  0.3378
 1074  1032.803  245.35  0.1023  0.3788
 1075  1033.260  245.78  0.0976  0.3754
 1076  1033.716  247.07  0.0796  0.3267
 1077  1034.173  246.53  0.0799  0.3594
 1078  1034.631  244.78  0.0921  0.4487
 1079  1035.089  243.53  0.0752  0.3381
 1080  1035.547  244.74  0.0561  0.2549
 1081  1036.005  244.47  0.0689  0.3365
 1082  1036.464  242.41  0.0737  0.3740
 1083  1036.924  241.52  0.0618  0.3173
 1084  1037.384  241.79  0.0667  0.3159
 1085  1037.844  241.67  0.0673  0.3367
 1086  1038.305  240.26  0.0658  0.3762
 1087  1038.766  239.65  0.0669  0.3654
 1088  1039.227  239.19  0.0810  0.3556
 1089  1039.689  237.73  0.0751  0.3425
 1090  1040.151  238.23  0.0868  0.3699
 1091  1040.614  238.00  0.1007  0.4066
 1092  1041.077  237.51  0.1090  0.3865
 1093  1041.540  240.70  0.1476  0.4988
 1094  1042.004  253.37  0.1419  0.4366
 1095  1042.468  262.61  0.0486  0.1200
 1096  1042.932  264.03  0.0358  0.1240
 1097  1043.397  264.36  0.0350  0.1254
 1098  1043.863  264.98  0.0397  0.1128
 1099  1044.329  260.27  0.0735  0.1865
 1100  1044.795  254.89  0.0965  0.3048
 1101  1045.261  256.45  0.0818  0.2430
 1102  1045.729  253.45  0.1042  0.3107
 1103  1046.196  247.68  0.1231  0.3510
 1104  1056.075  238.17  0.1175  0.3706
 1105  1056.551  241.45  0.1175  0.6484
 1106  1057.027  242.42  0.1211  0.5545
 1107  1057.504  242.86  0.1275  0.5573
 1108  1057.981  244.29  0.1254  0.6074
 1109  1058.459  242.72  0.1193  0.6275
 1110  1058.936  243.62  0.0792  0.4663
 1111  1059.415  243.67  0.0715  0.4048
 1112  1059.893  242.34  0.0732  0.3988
 1113  1060.373  243.03  0.0871  0.4622
 1114  1060.852  244.93  0.0778  0.4124
 1115  1061.332  245.32  0.0857  0.4399
 1116  1061.812  247.79  0.0834  0.3355
 1117  1062.293  248.57  0.0987  0.3533
 1118  1062.774  251.67  0.1177  0.3638
 1119  1063.256  252.84  0.1123  0.3664
 1120  1063.738  254.03  0.1099  0.3410
 1121  1064.220  256.43  0.0996  0.2593
 1122  1064.703  256.43  0.0927  0.2701
 1123  1065.186  259.20  0.0797  0.2624
 1124  1065.670  258.35  0.1158  0.3800
 1125  1066.154  257.44  0.1355  0.4589
 1126  1066.639  260.70  0.0943  0.3338
 1127  1067.124  263.57  0.0612  0.2063
 1128  1067.609  264.99  0.0530  0.1899
 1129  1068.095  265.86  0.0366  0.1593
 1130  1068.581  265.23  0.0266  0.1342
 1131  1069.068  265.99  0.0264  0.1306
 1132  1069.554  268.71  0.0427  0.2892
 1133  1070.042  268.91  0.0335  0.2392
 1134  1070.530  268.57  0.0320  0.2271
 1135  1071.018  269.76  0.0277  0.1849
 1136  1071.507  269.64  0.0227  0.1453
 1137  1071.996  269.22  0.0234  0.1206
 1138  1072.485  269.86  0.0201  0.0815
 1139  1072.975  269.20  0.0241  0.0944
 1140  1073.466  269.26  0.0253  0.1155
 1141  1073.957  268.83  0.0186  0.1321
 1142  1074.448  265.68  0.0509  0.2930
 1143  1074.940  266.45  0.0489  0.1578
 1144  1075.432  269.27  0.0154  0.0824
 1145  1075.924  269.13  0.0235  0.1145
 1146  1076.417  269.79  0.0195  0.1013
 1147  1076.911  269.92  0.0166  0.0745
 1148  1077.404  269.43  0.0183  0.0738
 1149  1077.899  270.30  0.0089  0.0364
 1150  1078.393  269.75  0.0189  0.0721
 1151  1078.888  269.93  0.0165  0.0649
 1152  1079.384  270.30  0.0118  0.0486
 1153  1079.880  269.50  0.0156  0.0648
 1154  1080.376  269.93  0.0100  0.0381
 1155  1080.873  268.48  0.0208  0.0803
 1156  1081.370  268.03  0.0195  0.0780
 1157  1081.868  269.62  0.0106  0.0450
 1158  1082.366  269.96  0.0123  0.0478
 1159  1082.865  270.37  0.0083  0.0340
 1160  1083.364  270.05  0.0114  0.0461
 1161  1083.863  270.18  0.0091  0.0351
 1162  1084.363  269.96  0.0077  0.0314
 1163  1084.863  269.84  0.0148  0.0723
 1164  1085.364  269.70  0.0161  0.0601
 1165  1085.865  269.59  0.0106  0.0361
 1166  1086.367  270.20  0.0065  0.0367
 1167  1086.869  269.92  0.0074  0.0414
 1168  1087.371  269.41  0.0091  0.0594
 1169  1087.874  269.49  0.0139  0.0643
 1170  1088.378  270.01  0.0114  0.0455
 1171  1088.881  270.22  0.0059  0.0324
 1172  1089.386  270.22  0.0068  0.0377
 1173  1089.890  270.19  0.0086  0.0345
 1174  1090.395  270.09  0.0127  0.0537
 1175  1090.901  268.07  0.0272  0.2777
 1176  1091.407  267.74  0.0273  0.2651
 1177  1091.913  269.93  0.0209  0.0941
 1178  1092.420  270.46  0.0081  0.0423
 1179  1092.928  270.49  0.0062  0.0360
 1180  1093.435  270.48  0.0056  0.0337
 1181  1093.944  270.31  0.0060  0.0398
 1182  1094.452  269.93  0.0077  0.0535
 1183  1094.961  270.02  0.0083  0.0543
 1184  1095.471  270.62  0.0059  0.0353
 1185  1095.981  270.85  0.0043  0.0268
 1186  1096.491  270.75  0.0049  0.0311
 1187  1097.002  270.79  0.0053  0.0292
 1188  1097.514  270.77  0.0050  0.0302
 1189  1098.025  270.54  0.0060  0.0366
 1190  1098.538  270.35  0.0071  0.0391
 1191  1099.050  269.53  0.0231  0.2409
 1192  1099.563  267.70  0.0255  0.2480
 1193  1100.077  268.44  0.0268  0.2651
 1194  1100.591  270.00  0.0115  0.0508
 1195  1101.106  268.22  0.0366  0.3978
 1196  1101.621  267.21  0.0635  0.5319
 1197  1102.136  269.04  0.0238  0.0941
 1198  1102.652  270.42  0.0054  0.0271
 1199  1103.168  270.75  0.0046  0.0258
 1200  1103.685  270.51  0.0058  0.0348
 1201  1104.202  270.65  0.0055  0.0315
 1202  1104.720  270.94  0.0046  0.0233
 1203  1105.238  270.71  0.0064  0.0314
 1204  1105.756  270.43  0.0100  0.0563
 1205  1106.276  268.02  0.0232  0.2029
 1206  1106.795  266.23  0.0225  0.1495
 1207  1107.315  268.71  0.0309  0.3507
 1208  1107.835  270.47  0.0097  0.0527
 1209  1108.356  270.75  0.0072  0.0319
 1210  1108.878  270.92  0.0063  0.0232
 1211  1109.399  271.18  0.0066  0.0254
 1212  1109.922  271.03  0.0059  0.0265
 1213  1110.444  270.42  0.0076  0.0384
 1214  1110.968  267.95  0.0321  0.2028
 1215  1111.491  265.90  0.0301  0.1662
 1216  1112.015  268.53  0.0239  0.2222
 1217  1112.540  270.66  0.0095  0.0451
 1218  1113.065  270.69  0.0104  0.0382
 1219  1113.590  270.78  0.0087  0.0347
 1220  1114.116  270.96  0.0072  0.0284
 1221  1114.643  270.81  0.0094  0.0361
 1222  1115.170  270.53  0.0135  0.0550
 1223  1115.697  271.01  0.0090  0.0334
 1224  1116.225  271.13  0.0061  0.0212
 1225  1116.753  270.29  0.0149  0.0710
 1226  1117.282  270.27  0.0193  0.0804
 1227  1117.811  270.49  0.0195  0.1053
 1228  1118.341  270.49  0.0110  0.0391
 1229  1118.871  269.86  0.0140  0.0560
 1230  1119.402  270.00  0.0154  0.0689
 1231  1119.933  270.88  0.0103  0.0453
 1232  1120.464  268.41  0.0680  0.3574
 1233  1120.996  264.23  0.0710  0.2351
 1234  1121.529  266.44  0.0463  0.2315
 1235  1122.062  269.58  0.0235  0.0849
 1236  1122.595  270.15  0.0171  0.0739
 1237  1123.129  271.12  0.0085  0.0343
 1238  1123.664  270.27  0.0130  0.0528
 1239  1124.199  269.69  0.0158  0.0710
 1240  1124.734  270.20  0.0101  0.0382
 1241  1125.270  270.38  0.0112  0.0524
 1242  1125.806  270.16  0.0165  0.0818
 1243  1126.343  270.77  0.0113  0.0414
 1244  1126.880  270.96  0.0095  0.0358
 1245  1127.418  270.44  0.0139  0.0606
 1246  1127.956  270.88  0.0124  0.0461
 1247  1128.495  271.14  0.0100  0.0367
 1248  1129.034  270.64  0.0116  0.0421
 1249  1129.574  270.73  0.0099  0.0322
 1250  1130.114  270.55  0.0103  0.0316
 1251  1130.655  270.28  0.0100  0.0354
 1252  1131.196  270.36  0.0093  0.0338
 1253  1131.738  270.63  0.0105  0.0392
 1254  1132.280  270.78  0.0118  0.0436
 1255  1132.822  270.83  0.0109  0.0410
 1256  1133.365  270.69  0.0108  0.0400
 1257  1133.909  270.23  0.0128  0.0591
 1258  1134.453  269.99  0.0156  0.0990
 1259  1134.997  267.46  0.0351  0.1619
 1260  1135.542  261.86  0.0364  0.1754
 1261  1136.088  263.34  0.0323  0.1523
 1262  1136.634  267.46  0.0348  0.1260
 1263  1216.974  270.76  0.0100  0.0361
 1264  1217.481  269.60  0.0168  0.0573
 1265  1217.988  265.53  0.0227  0.0799
 1266  1218.496  261.34  0.0271  0.1039
 1267  1219.004  264.95  0.0240  0.1298
 1268  1219.513  267.78  0.0347  0.1182
 1269  1220.022  267.61  0.0396  0.1119
 1270  1220.531  267.32  0.0277  0.2557
 1271  1221.041  267.53  0.0256  0.2749
 1272  1221.552  267.75  0.0408  0.4054
 1273  1222.063  267.73  0.0458  0.1399
 1274  1222.574  268.32  0.0364  0.1170
 1275  1223.085  268.47  0.0270  0.0779
 1276  1223.597  268.56  0.0261  0.0768
 1277  1224.110  267.40  0.0230  0.0981
 1278  1224.623  262.05  0.0266  0.1016
 1279  1225.136  256.13  0.0251  0.0812
 1280  1225.650  260.50  0.0310  0.1132
 1281  1226.164  266.53  0.0367  0.2471
 1282  1226.679  269.07  0.0229  0.0860
 1283  1227.194  270.35  0.0191  0.0795
 1284  1227.709  271.30  0.0056  0.0212
 1285  1228.225  270.46  0.0152  0.0551
 1286  1228.742  267.71  0.0334  0.0948
 1287  1229.258  265.84  0.0491  0.1861
 1288  1229.776  265.23  0.0384  0.1336
 1289  1230.293  266.60  0.0322  0.1048
 1290  1230.811  270.59  0.0199  0.0747
 1291  1231.330  271.91  0.0041  0.0141
 1292  1231.849  271.85  0.0037  0.0119
 1293  1232.368  271.51  0.0057  0.0234
 1294  1232.888  270.38  0.0162  0.0564
 1295  1233.408  269.12  0.0329  0.1064
 1296  1233.929  270.48  0.0204  0.0764
 1297  1234.450  271.69  0.0045  0.0152
 1298  1234.971  271.53  0.0048  0.0187
 1299  1235.493  268.87  0.0517  0.1752
 1300  1236.016  263.75  0.0460  0.1464
 1301  1236.538  262.90  0.0391  0.1159
 1302  1237.062  261.95  0.0642  0.2161
 1303  1237.585  264.38  0.0525  0.1695
 1304  1238.110  267.06  0.0244  0.0733
 1305  1238.634  265.37  0.0283  0.0952
 1306  1239.159  265.31  0.0325  0.1161
 1307  1239.685  267.19  0.0151  0.1416
 1308  1240.211  267.68  0.0153  0.1975
 1309  1240.737  264.99  0.0263  0.0722
 1310  1241.264  264.78  0.0251  0.0778
 1311  1241.791  265.18  0.0314  0.1173
 1312  1242.319  263.09  0.0330  0.1810
 1313  1242.847  261.37  0.0300  0.1272
 1314  1243.375  259.82  0.0340  0.1133
 1315  1243.904  255.35  0.0623  0.2245
 1316  1244.434  256.17  0.0569  0.2121
 1317  1244.964  258.82  0.0632  0.2328
 1318  1245.494  258.97  0.0332  0.1025
 1319  1246.025  261.33  0.0285  0.0789
 1320  1246.556  263.10  0.0230  0.0765
 1321  1247.088  265.26  0.0254  0.0675
 1322  1247.620  259.11  0.0402  0.1718
 1323  1248.152  259.51  0.0402  0.1165
 1324  1248.685  265.80  0.0146  0.1041
 1325  1249.219  264.16  0.0309  0.0838
 1326  1249.753  261.03  0.0317  0.0964
 1327  1250.287  264.16  0.0230  0.0647
 1328  1250.822  266.23  0.0139  0.1207
 1329  1251.357  264.66  0.0115  0.1089
 1330  1251.893  263.91  0.0135  0.1467
 1331  1252.429  263.10  0.0142  0.1556
 1332  1252.965  260.05  0.0280  0.2406
 1333  1253.503  250.88  0.0505  0.1679
 1334  1254.040  253.84  0.0309  0.0905
 1335  1254.578  258.38  0.0214  0.0667
 1336  1255.116  258.22  0.0244  0.0782
 1337  1255.655  262.94  0.0149  0.0669
 1338  1256.195  260.53  0.0179  0.0581
 1339  1256.734  257.85  0.0275  0.0887
 1340  1257.275  261.44  0.0133  0.0401
 1341  1257.815  261.86  0.0164  0.1006
 1342  1258.357  258.76  0.0213  0.0711
 1343  1258.898  255.09  0.0390  0.1536
 1344  1259.440  245.80  0.0506  0.1609
 1345  1259.983  237.45  0.2012  0.7362
 1346  1260.526  238.98  0.1899  0.6665
 1347  1261.069  247.38  0.0296  0.1030
 1348  1261.613  250.20  0.0240  0.0797
 1349  1262.157  250.46  0.0333  0.1114
 1350  1262.702  252.92  0.0233  0.0731
 1351  1263.247  250.02  0.0295  0.0876
 1352  1263.793  252.25  0.0252  0.0915
 1353  1264.339  255.98  0.0252  0.1014
 1354  1264.886  252.71  0.0664  0.1908
 1355  1265.433  245.78  0.0570  0.2276
 1356  1265.981  248.11  0.0399  0.1634
 1357  1266.529  252.77  0.0255  0.0934
 1358  1267.077  252.65  0.0326  0.1179
 1359  1267.626  244.98  0.0829  0.3202
 1360  1268.176  240.16  0.0312  0.1148
 1361  1268.726  241.63  0.0257  0.0779
 1362  1269.276  244.44  0.0563  0.2284
 1363  1269.827  244.45  0.0581  0.2202
 1364  1270.378  241.78  0.0933  0.3029
 1365  1270.930  237.74  0.0461  0.1439
 1366  1271.482  232.50  0.1504  0.4897
 1367  1272.035  240.12  0.1204  0.3830
 1368  1272.588  248.37  0.0191  0.0575
 1369  1284.348  255.37  0.0232  0.0732
 1370  1284.911  261.54  0.0161  0.0571
 1371  1285.475  261.44  0.0080  0.0462
 1372  1286.039  257.36  0.0323  0.1120
 1373  1286.604  254.96  0.0424  0.1096
 1374  1287.169  248.29  0.0677  0.2570
 1375  1287.735  238.52  0.0928  0.4340
 1376  1288.301  237.20  0.0740  0.3074
 1377  1288.868  243.01  0.1109  0.4612
 1378  1289.435  249.22  0.0430  0.1412
 1379  1290.003  251.40  0.0396  0.1734
 1380  1290.571  252.41  0.0391  0.1366
 1381  1291.140  253.56  0.0258  0.0752
 1382  1291.709  254.41  0.0194  0.0696
 1383  1292.278  250.03  0.0286  0.0712
 1384  1292.848  246.22  0.0307  0.1207
 1385  1293.419  248.89  0.0252  0.1036
 1386  1293.990  246.35  0.0330  0.1222
 1387  1294.561  242.91  0.0362  0.1458
 1388  1295.133  242.38  0.0262  0.0967
 1389  1295.706  245.12  0.0238  0.1237
 1390  1296.279  245.46  0.0577  0.1968
 1391  1296.853  241.25  0.1401  0.5435
 1392  1297.427  237.20  0.0735  0.2881
 1393  1298.001  240.61  0.0279  0.0877
 1394  1298.576  248.96  0.0247  0.0898
 1395  1299.151  247.67  0.0226  0.0657
 1396  1299.727  238.52  0.0369  0.1215
 1397  1300.304  241.08  0.0343  0.1054
 1398  1300.881  244.18  0.0269  0.0825
 1399  1301.458  235.86  0.0343  0.1093
 1400  1302.036  233.91  0.0263  0.0786
 1401  1302.615  234.50  0.0267  0.0866
 1402  1303.194  228.41  0.0335  0.1097
 1403  1303.773  226.25  0.0299  0.0955
 1404  1304.353  225.39  0.0285  0.0968
 1405  1304.934  223.61  0.0302  0.1021
 1406  1305.515  222.29  0.0433  0.1670
 1407  1306.096  226.19  0.0677  0.2216
 1408  1306.678  240.48  0.0298  0.1021
 1409  1307.260  249.98  0.0372  0.1359
 1410  1307.843  247.99  0.0689  0.2124
 1411  1308.427  248.66  0.0421  0.1370
 1412  1309.011  254.86  0.0211  0.0793
 1413  1309.595  256.59  0.0125  0.0385
 1414  1310.180  256.88  0.0124  0.0439
 1415  1310.766  255.30  0.0233  0.0737
 1416  1311.352  250.36  0.0392  0.1619
 1417  1311.938  247.39  0.1265  0.3858
 1418  1312.525  245.72  0.0571  0.1779
 1419  1313.113  244.23  0.0366  0.1168
 1420  1313.701  246.01  0.0366  0.1072
 1421  1314.289  250.51  0.0215  0.0623
 1422  1314.878  252.73  0.0297  0.0987
 1423  1315.468  255.96  0.0147  0.0534
 1424  1316.058  254.17  0.0341  0.1528
 1425  1316.648  245.57  0.0958  0.3192
 1426  1317.239  245.89  0.0929  0.2772
 1427  1317.831  252.17  0.0251  0.0922
 1428  1318.423  246.93  0.0576  0.2113
 1429  1319.016  241.63  0.0573  0.2513
 1430  1319.609  243.66  0.0286  0.1100
 1431  1320.202  246.30  0.0297  0.0709
 1432  1320.797  252.30  0.0249  0.0801
 1433  1321.391  254.26  0.0448  0.1431
 1434  1321.986  249.71  0.0554  0.1776
 1435  1322.582  253.49  0.0433  0.1396
 1436  1323.178  257.10  0.0319  0.1138
 1437  1323.775  257.79  0.0228  0.0786
 1438  1324.372  261.02  0.0151  0.0763
 1439  1324.970  263.25  0.0100  0.0416
 1440  1325.568  262.71  0.0105  0.0434
 1441  1326.167  259.81  0.0195  0.0784
 1442  1326.766  249.17  0.0775  0.2647
 1443  1327.366  240.92  0.0970  0.2825
 1444  1327.967  252.99  0.0495  0.1668
 1445  1328.568  260.93  0.0192  0.0740
 1446  1329.169  260.48  0.0184  0.0674
 1447  1329.771  257.12  0.0233  0.0897
 1448  1330.373  260.37  0.0220  0.0806
 1449  1330.976  263.87  0.0168  0.0821
 1450  1331.580  257.37  0.0430  0.1641
 1451  1332.184  240.77  0.0986  0.2959
 1452  1332.788  240.85  0.0797  0.2791
 1453  1333.393  254.29  0.0369  0.1206
 1454  1333.999  258.93  0.0087  0.0263
 1455  1334.605  260.51  0.0091  0.0430
 1456  1335.212  259.04  0.0129  0.0679
 1457  1335.819  254.64  0.0357  0.1415
 1458  1336.427  244.80  0.1242  0.3330
 1459  1337.035  235.83  0.0763  0.2169
 1460  1337.644  236.13  0.0877  0.3318
 1461  1338.253  236.57  0.1189  0.3908
 1462  1338.863  238.13  0.0400  0.1904
 1463  1338.161  236.20  0.1319  0.4268
 1464  1338.669  238.02  0.0442  0.1804
 1465  1339.178  238.99  0.0342  0.2136
 1466  1339.687  238.30  0.0322  0.1899
 1467  1340.196  235.19  0.0470  0.2215
 1468  1340.706  239.08  0.0766  0.3175
 1469  1341.216  242.46  0.0984  0.6382
 1470  1341.727  237.13  0.0639  0.2277
 1471  1342.238  239.17  0.0410  0.1039
 1472  1342.749  240.69  0.0444  0.1142
 1473  1343.261  250.73  0.0292  0.0843
 1474  1343.773  258.13  0.0126  0.0512
 1475  1344.286  259.33  0.0146  0.0665
 1476  1344.799  260.49  0.0072  0.0268
 1477  1345.312  260.65  0.0093  0.0268
 1478  1345.826  257.05  0.0211  0.0704
 1479  1346.340  245.90  0.0617  0.2501
 1480  1346.855  240.25  0.0501  0.1969
 1481  1347.370  247.67  0.0293  0.1088
 1482  1347.886  248.60  0.0295  0.1053
 1483  1348.402  251.28  0.0532  0.1627
 1484  1348.918  248.98  0.0534  0.1757
 1485  1349.435  244.23  0.0439  0.1418
 1486  1349.952  251.21  0.0306  0.1050
 1487  1350.469  253.63  0.0507  0.1585
 1488  1350.987  248.49  0.0399  0.2035
 1489  1351.506  247.88  0.0350  0.1092
 1490  1352.025  253.92  0.0349  0.1216
 1491  1352.544  255.33  0.0339  0.1148
 1492  1353.063  250.87  0.0291  0.1082
 1493  1353.583  255.18  0.0275  0.1094
 1494  1354.104  255.64  0.0198  0.0762
 1495  1354.625  246.47  0.0427  0.1161
 1496  1355.146  239.39  0.1375  0.4988
 1497  1355.668  242.34  0.0564  0.1843
 1498  1356.190  247.29  0.0327  0.0967
 1499  1356.713  252.50  0.0337  0.1099
 1500  1357.236  257.70  0.0147  0.0511
 1501  1357.759  254.00  0.0686  0.2365
 1502  1358.283  249.96  0.0433  0.1214
 1503  1358.807  254.00  0.0149  0.0424
 1504  1359.332  254.95  0.0178  0.0547
 1505  1359.857  250.28  0.0448  0.1400
 1506  1360.383  244.47  0.0541  0.1703
 1507  1360.909  238.38  0.0464  0.1482
 1508  1361.435  240.93  0.0848  0.3171
 1509  1361.962  244.34  0.0217  0.1052
 1510  1362.489  236.68  0.0635  0.2354
 1511  1363.017  230.08  0.1147  0.4196
 1512  1363.545  237.31  0.1085  0.3417
 1513  1364.073  245.68  0.0611  0.2231
 1514  1364.602  250.72  0.0324  0.1131
 1515  1365.131  254.27  0.0245  0.0845
 1516  1365.661  253.66  0.0260  0.1051
 1517  1366.192  253.78  0.0359  0.1254
 1518  1366.722  257.43  0.0280  0.0880
 1519  1367.253  256.96  0.0088  0.0361
 1520  1367.785  251.41  0.0703  0.1964
 1521  1368.317  240.82  0.1318  0.3939
 1522  1368.849  239.69  0.1128  0.3844
 1523  1369.382  247.64  0.0260  0.0770
 1524  1369.915  252.82  0.0223  0.0908
 1525  1370.449  254.71  0.0211  0.0943
 1526  1370.983  253.91  0.0213  0.0932
 1527  1371.517  253.84  0.0072  0.0251
 1528  1372.052  250.23  0.0128  0.0451
 1529  1372.588  246.46  0.0268  0.0979
 1530  1373.123  240.76  0.0332  0.0941
 1531  1373.660  233.16  0.0589  0.1896
 1532  1374.196  235.15  0.0445  0.2003
 1533  1374.733  234.62  0.0437  0.1381
 1534  1375.271  234.59  0.0728  0.2227
 1535  1375.809  244.67  0.0455  0.1782
 1536  1376.347  251.50  0.0074  0.0298
 1537  1376.886  253.55  0.0087  0.0418
 1538  1377.425  252.60  0.0169  0.0682
 1539  1377.965  247.92  0.0365  0.1534
 1540  1378.505  248.34  0.0285  0.1123
 1541  1379.046  251.15  0.0161  0.0406
 1542  1379.587  247.61  0.0229  0.0634
 1543  1380.128  249.30  0.0206  0.0631
 1544  1380.670  255.91  0.0175  0.0643
 1545  1381.213  258.28  0.0117  0.0462
 1546  1381.756  256.60  0.0123  0.0425
 1547  1382.299  256.39  0.0100  0.0371
 1548  1382.843  256.24  0.0166  0.0706
 1549  1383.387  254.40  0.0153  0.0667
 1550  1383.931  255.94  0.0053  0.0161
 1551  1384.476  256.60  0.0074  0.0264
 1552  1385.022  254.77  0.0090  0.0345
 1553  1385.568  251.67  0.0099  0.0331
 1554  1386.114  244.58  0.0336  0.1425
 1555  1386.661  238.06  0.0353  0.2296
 1556  1387.208  233.61  0.0513  0.2247
 1557  1387.756  233.79  0.0544  0.1730
 1558  1388.304  242.53  0.0179  0.0805
 1559  1388.852  248.96  0.0063  0.0180
 1560  1389.401  251.53  0.0067  0.0214
 1561  1389.951  250.40  0.0074  0.0226
 1562  1390.501  247.89  0.0117  0.0386
 1563  1391.051  248.92  0.0130  0.0462
 1564  1391.602  251.86  0.0071  0.0188
 1565  1392.153  251.91  0.0069  0.0286
 1566  1392.705  250.12  0.0085  0.0404
 1567  1393.257  246.17  0.0094  0.0424
 1568  1393.810  238.34  0.0890  0.3017
 1569  1394.363  229.96  0.0510  0.1537
 1570  1394.916  232.18  0.0410  0.1851
 1571  1395.470  233.49  0.0389  0.1887
 1572  1396.025  235.63  0.0483  0.1424
 1573  1396.579  243.46  0.0125  0.0453
 1574  1397.135  244.39  0.0147  0.0534
 1575  1397.691  239.96  0.0307  0.1229
 1576  1398.247  238.50  0.0202  0.1176
 1577  1398.803  232.91  0.0519  0.1309
 1578  1399.361  230.06  0.0582  0.1447
 1579  1399.918  238.90  0.0240  0.0817
 1580  1400.476  245.95  0.0062  0.0348
 1581  1401.035  249.95  0.0048  0.0217
 1582  1401.594  252.22  0.0042  0.0185
 1583  1402.153  252.85  0.0046  0.0150
 1584  1402.713  252.25  0.0052  0.0154
 1585  1403.273  250.33  0.0063  0.0225
 1586  1403.834  247.32  0.0084  0.0505
 1587  1404.396  240.36  0.0346  0.1057
 1588  1404.957  233.03  0.0585  0.1671
 1589  1405.519  239.42  0.0417  0.1163
 1590  1406.082  248.12  0.0081  0.0409
 1591  1406.645  252.10  0.0058  0.0237
 1592  1407.209  253.89  0.0059  0.0191
 1593  1407.773  254.83  0.0053  0.0169
 1594  1408.337  254.45  0.0072  0.0224
 1595  1408.902  254.58  0.0066  0.0189
 1596  1409.468  251.98  0.0138  0.0338
 1597  1410.034  248.98  0.0199  0.0510
 1598  1410.600  252.03  0.0100  0.0240
 1599  1411.167  249.50  0.0188  0.0524
 1600  1411.734  242.75  0.0300  0.0911
 1601  1412.302  246.82  0.0291  0.0889
 1602  1412.870  253.19  0.0054  0.0141
 1603  1413.439  254.01  0.0047  0.0150
 1604  1414.008  252.50  0.0040  0.0140
 1605  1414.578  249.63  0.0053  0.0173
 1606  1415.148  248.33  0.0053  0.0244
 1607  1415.718  245.52  0.0230  0.0939
 1608  1416.289  242.73  0.0250  0.1248
 1609  1416.861  240.63  0.0309  0.1137
 1610  1417.433  235.46  0.0404  0.1546
 1611  1418.005  235.94  0.0223  0.1321
 1612  1418.578  231.30  0.0546  0.1464
 1613  1419.151  223.25  0.0717  0.2185
 1614  1419.725  226.13  0.0774  0.2006
 1615  1420.300  235.19  0.0204  0.0788
 1616  1420.875  241.64  0.0082  0.0493
 1617  1421.450  244.80  0.0056  0.0350
 1618  1422.026  246.31  0.0038  0.0198
 1619  1422.602  245.12  0.0034  0.0219
 1620  1423.178  238.34  0.0384  0.1107
 1621  1423.756  230.25  0.0914  0.2809
 1622  1424.333  235.61  0.0562  0.1564
 1623  1424.911  244.85  0.0118  0.0367
 1624  1425.490  248.77  0.0060  0.0217
 1625  1426.069  249.93  0.0056  0.0155
 1626  1426.649  250.74  0.0064  0.0185
 1627  1427.229  250.59  0.0040  0.0133
 1628  1427.809  247.66  0.0100  0.0263
 1629  1428.390  244.30  0.0130  0.0502
 1630  1428.972  241.97  0.0099  0.0339
 1631  1429.554  234.02  0.0621  0.1982
 1632  1430.136  231.45  0.0534  0.1305
 1633  1430.719  239.88  0.0177  0.0478
 1634  1431.303  244.40  0.0043  0.0241
 1635  1431.887  244.25  0.0103  0.0307
 1636  1432.471  245.07  0.0136  0.0551
 1637  1433.056  242.02  0.0308  0.1334
 1638  1433.641  240.71  0.0197  0.0928
 1639  1434.227  243.85  0.0046  0.0230
 1640  1434.814  242.88  0.0063  0.0445
 1641  1435.400  237.56  0.0185  0.0869
 1642  1435.988  230.26  0.0446  0.1581
 1643  1436.576  224.10  0.0825  0.2361
 1644  1437.164  226.76  0.0820  0.2038
 1645  1437.753  235.51  0.0169  0.0657
 1646  1438.342  241.93  0.0073  0.0423
 1647  1438.932  245.52  0.0057  0.0318
 1648  1439.522  247.53  0.0042  0.0171
 1649  1440.113  248.85  0.0051  0.0193
 1650  1440.704  249.44  0.0064  0.0220
 1651  1441.296  249.83  0.0049  0.0198
 1652  1441.888  251.01  0.0045  0.0119
 1653  1442.481  250.86  0.0031  0.0099
 1654  1443.074  250.73  0.0041  0.0099
 1655  1460.265  239.22  0.0056  0.0252
 1656  1460.873  242.26  0.0036  0.0153
 1657  1461.482  243.35  0.0029  0.0098
 1658  1462.091  243.38  0.0027  0.0086
 1659  1462.701  242.49  0.0027  0.0092
 1660  1463.311  240.16  0.0046  0.0221
 1661  1463.922  234.84  0.0139  0.0423
 1662  1464.533  226.47  0.0569  0.1540
 1663  1465.145  225.17  0.0552  0.1829
 1664  1465.758  232.78  0.0201  0.0677
 1665  1466.371  238.27  0.0096  0.0684
 1666  1466.984  240.94  0.0026  0.0100
 1667  1467.598  242.55  0.0024  0.0092
 1668  1468.212  243.98  0.0020  0.0083
 1669  1468.827  244.14  0.0025  0.0088
 1670  1469.443  242.61  0.0029  0.0092
 1671  1470.059  240.43  0.0039  0.0168
 1672  1470.675  236.98  0.0082  0.0432
 1673  1471.292  229.83  0.0434  0.1167
 1674  1471.910  223.05  0.0473  0.1230
 1675  1472.528  224.65  0.0383  0.1075
 1676  1473.146  224.99  0.0364  0.0959
 1677  1473.765  226.20  0.0450  0.1187
 1678  1474.385  232.85  0.0183  0.0659
 1679  1475.005  236.65  0.0070  0.0605
 1680  1475.625  232.88  0.0410  0.1075
 1681  1476.246  227.72  0.0648  0.1867
 1682  1476.868  234.53  0.0507  0.1335
 1683  1477.490  241.87  0.0056  0.0332
 1684  1478.113  244.87  0.0034  0.0176
 1685  1478.736  246.18  0.0025  0.0115
 1686  1479.360  246.54  0.0020  0.0083
 1687  1479.984  245.30  0.0024  0.0100
 1688  1480.609  240.66  0.0216  0.0561
 1689  1481.234  235.46  0.0382  0.1108
 1690  1481.860  239.13  0.0220  0.0797
 1691  1482.486  244.59  0.0035  0.0193
 1692  1483.113  246.17  0.0021  0.0069
 1693  1483.741  245.28  0.0029  0.0109
 1694  1484.369  244.23  0.0036  0.0165
 1695  1484.997  243.45  0.0029  0.0094
 1696  1485.626  240.81  0.0097  0.0429
 1697  1486.255  235.86  0.0152  0.0785
 1698  1486.885  229.29  0.0473  0.1163
 1699  1487.516  226.93  0.0516  0.1321
 1700  1488.147  232.71  0.0207  0.0639
 1701  1488.779  232.28  0.0318  0.1629
 1702  1489.411  226.74  0.0434  0.1784
 1703  1490.044  225.20  0.0377  0.1097
 1704  1490.677  225.36  0.0420  0.1090
 1705  1491.311  230.81  0.0658  0.4674
 1706  1491.945  238.02  0.0057  0.0193
 1707  1492.580  240.41  0.0028  0.0096
 1708  1493.215  240.59  0.0034  0.0170
 1709  1493.851  240.68  0.0023  0.0089
 1710  1494.487  239.04  0.0040  0.0214
 1711  1495.124  234.51  0.0081  0.0226
 1712  1495.762  226.96  0.0496  0.1278
 1713  1496.400  223.85  0.0503  0.1267
 1714  1497.038  229.54  0.0226  0.0609
 1715  1497.677  232.13  0.0070  0.0556
 1716  1498.317  227.61  0.0450  0.1167
 1717  1498.957  225.32  0.0532  0.1514
 1718  1499.598  231.00  0.0221  0.0611
 1719  1500.239  234.91  0.0050  0.0363
 1720  1500.881  235.79  0.0037  0.0153
 1721  1501.523  234.38  0.0185  0.0838
 1722  1502.166  235.42  0.0193  0.0750
 1723  1502.810  237.35  0.0029  0.0118
 1724  1503.454  236.08  0.0039  0.0139
 1725  1504.098  232.72  0.0064  0.0328
 1726  1504.743  227.11  0.0236  0.0770
 1727  1505.389  221.11  0.0495  0.1512
 1728  1506.035  219.61  0.0341  0.1000
 1729  1506.682  219.42  0.0345  0.1013
 1730  1507.329  220.50  0.0423  0.1219
 1731  1507.977  222.95  0.0254  0.1020
 1732  1508.625  225.26  0.0328  0.0794
 1733  1509.274  227.36  0.0347  0.1408
 1734  1509.923  229.18  0.0369  0.1675
 1735  1510.573  233.05  0.0182  0.0909
 1736  1511.224  235.25  0.0078  0.0400
 1737  1511.875  231.67  0.0414  0.1109
 1738  1512.527  230.63  0.0465  0.1260
 1739  1513.179  236.56  0.0119  0.0456
 1740  1513.832  238.59  0.0032  0.0206
 1741  1514.485  234.55  0.0268  0.0899
 1742  1515.139  230.73  0.0297  0.0903
 1743  1515.793  229.94  0.0251  0.0958
 1744  1516.448  225.49  0.0388  0.0962
 1745  1517.104  221.93  0.0404  0.1236
 1746  1517.760  225.04  0.0580  0.2042
 1747  1518.417  231.66  0.0202  0.0520
 1748  1519.074  233.22  0.0046  0.0294
 1749  1519.732  228.66  0.0332  0.0953
 1750  1520.390  223.72  0.0337  0.1109
 1751  1521.049  221.88  0.0436  0.1508
 1752  1521.708  222.41  0.0385  0.1223
 1753  1522.368  222.37  0.0351  0.1007
 1754  1523.029  224.20  0.0425  0.1143
 1755  1523.690  229.58  0.0130  0.0508
 1756  1524.352  230.53  0.0181  0.0887
 1757  1525.014  225.87  0.0427  0.1210
 1758  1525.677  225.73  0.0451  0.1307
 1759  1526.340  231.02  0.0190  0.0669
 1760  1527.004  230.59  0.0335  0.1183
 1761  1541.096  221.98  0.0236  0.0830
 1762  1541.772  221.27  0.0519  0.1401
 1763  1542.449  222.02  0.0553  0.1497
 1764  1543.126  224.75  0.0234  0.0626
 1765  1543.803  227.54  0.0252  0.1010
 1766  1544.482  227.51  0.0256  0.1185
 1767  1545.161  225.05  0.0397  0.1270
 1768  1545.840  230.09  0.0374  0.1336
 1769  1546.520  236.10  0.0058  0.0356
 1770  1547.200  238.19  0.0024  0.0115
 1771  1547.881  238.01  0.0036  0.0124
 1772  1548.563  237.17  0.0044  0.0260
 1773  1549.245  232.82  0.0344  0.1049
 1774  1549.928  227.81  0.0490  0.1494
 1775  1550.612  231.69  0.0364  0.1203
 1776  1551.296  235.47  0.0047  0.0223
 1777  1551.980  235.12  0.0034  0.0199
 1778  1552.666  234.59  0.0032  0.0183
 1779  1553.351  231.48  0.0123  0.0491
 1780  1554.038  225.11  0.0466  0.1288
 1781  1554.725  224.85  0.0429  0.1195
 1782  1555.412  229.19  0.0077  0.0412
 1783  1556.100  229.50  0.0084  0.0773
 1784  1556.789  225.70  0.0281  0.0801
 1785  1557.479  220.72  0.0463  0.1423
 1786  1558.168  218.66  0.0367  0.0995
 1787  1558.859  219.11  0.0353  0.0998
 1788  1559.550  219.00  0.0298  0.0825
 1789  1560.242  219.46  0.0338  0.1063
 1790  1560.934  224.39  0.0380  0.1000
 1791  1561.627  230.20  0.0070  0.0365
 1792  1562.320  233.72  0.0042  0.0277
 1793  1563.015  234.88  0.0024  0.0087
 1794  1563.709  233.74  0.0047  0.0197
 1795  1564.404  228.89  0.0422  0.1242
 1796  1565.100  227.36  0.0475  0.1298
 1797  1565.797  233.12  0.0145  0.0444
 1798  1566.494  236.72  0.0030  0.0132
 1799  1567.192  237.33  0.0033  0.0145
 1800  1567.890  234.85  0.0075  0.0225
 1801  1568.589  228.23  0.0683  0.5939
 1802  1569.288  221.76  0.0432  0.1374
 1803  1569.988  223.02  0.0523  0.1627
 1804  1570.689  230.06  0.0250  0.0725
 1805  1571.390  235.40  0.0058  0.0329
 1806  1572.092  237.17  0.0039  0.0147
 1807  1572.795  236.54  0.0038  0.0163
 1808  1573.498  235.70  0.0054  0.0322
 1809  1574.201  233.80  0.0092  0.0586
 1810  1574.906  229.10  0.0167  0.0719
 1811  1575.611  222.72  0.0521  0.1406
 1812  1576.316  220.04  0.0493  0.1489
 1813  1577.022  223.98  0.0305  0.0906
 1814  1577.729  229.81  0.0130  0.0384
 1815  1578.437  235.07  0.0071  0.0326
 1816  1579.145  238.53  0.0056  0.0286
 1817  1579.853  240.69  0.0045  0.0173
 1818  1580.562  242.19  0.0037  0.0157
 1819  1581.272  243.16  0.0030  0.0133
 1820  1581.983  243.14  0.0025  0.0111
 1821  1582.694  243.27  0.0031  0.0099
 1822  1583.405  244.40  0.0034  0.0111
 1823  1584.118  245.36  0.0024  0.0069
 1824  1584.831  245.89  0.0057  0.0188
 1825  1585.544  246.10  0.0050  0.0170
 1826  1586.258  246.23  0.0047  0.0183
 1827  1586.973  246.20  0.0018  0.0058
 1828  1587.688  246.24  0.0058  0.0221
 1829  1588.404  246.22  0.0054  0.0194
 1830  1589.121  243.48  0.0122  0.0366
 1831  1589.838  240.15  0.0159  0.0464
 1832  1590.556  242.51  0.0082  0.0235
 1833  1591.275  242.02  0.0166  0.0565
 1834  1591.994  241.78  0.0171  0.0568
 1835  1592.714  245.03  0.0030  0.0084
 1836  1593.434  244.03  0.0061  0.0178
 1837  1594.155  237.93  0.0388  0.1242
 1838  1594.877  237.91  0.0367  0.1177
 1839  1595.599  240.84  0.0150  0.0439
 1840  1596.322  240.33  0.0216  0.0644
 1841  1597.045  244.09  0.0102  0.0302
 1842  1597.770  246.60  0.0015  0.0063
 1843  1598.494  246.87  0.0034  0.0137
 1844  1599.220  246.75  0.0038  0.0150
 1845  1599.946  246.00  0.0026  0.0084
 1846  1600.672  241.39  0.0261  0.0930
 1847  1601.400  238.80  0.0313  0.1142
 1848  1602.128  241.24  0.0141  0.0512
 1849  1602.856  236.97  0.0355  0.1317
 1850  1603.585  237.07  0.0581  0.2320
 1851  1604.315  243.62  0.0086  0.0286
 1852  1605.046  245.67  0.0017  0.0061
 1853  1605.777  244.50  0.0039  0.0109
 1854  1606.509  238.17  0.0345  0.1278
 1855  1607.241  234.54  0.0404  0.1476
 1856  1607.974  239.80  0.0197  0.0634
 1857  1608.708  238.37  0.0272  0.0881
 1858  1609.442  232.59  0.0444  0.1543
 1859  1610.177  237.26  0.0553  0.2558
 1860  1610.913  242.45  0.0031  0.0117
 1861  1611.649  243.06  0.0037  0.0152
 1862  1612.386  242.05  0.0042  0.0210
 1863  1613.124  240.49  0.0047  0.0268
 1864  1613.862  238.85  0.0063  0.0307
 1865  2181.494  264.64  0.1002  0.5381
 1866  2182.400  262.65  0.0474  0.2146
 1867  2183.306  260.27  0.0452  0.2177
 1868  2184.213  261.29  0.0339  0.0978
 1869  2185.121  261.29  0.0472  0.1621
 1870  2186.030  258.47  0.0696  0.2752
 1871  2186.939  256.82  0.0986  0.3803
 1872  2187.850  258.58  0.0528  0.1844
 1873  2188.760  258.66  0.0308  0.0933
 1874  2189.672  256.32  0.0418  0.1585
 1875  2190.584  257.46  0.0401  0.1112
 1876  2191.498  260.05  0.0364  0.1069
 1877  2192.412  258.68  0.0768  0.1794
 1878  2193.326  256.19  0.0743  0.1887
 1879  2194.242  254.80  0.0774  0.1772
 1880  2195.158  253.54  0.0352  0.1128
 1881  2196.075  252.40  0.0410  0.0986
 1882  2196.992  251.71  0.0398  0.1018
 1883  2197.911  251.35  0.0324  0.0899
 1884  2198.830  251.38  0.0471  0.1129
 1885  2199.750  251.07  0.0865  0.2411
 1886  2200.671  251.62  0.0735  0.2098
 1887  2201.592  252.09  0.0296  0.1051
 1888  2202.514  249.50  0.0567  0.1911
 1889  2203.437  247.01  0.0308  0.1220
 1890  2204.361  246.41  0.0281  0.0769
 1891  2205.285  245.26  0.0407  0.1127
 1892  2206.210  244.78  0.0263  0.0831
 1893  2207.136  245.65  0.0244  0.0898
 1894  2208.063  246.17  0.0248  0.1049
 1895  2208.991  245.51  0.0259  0.0950
 1896  2209.919  245.43  0.0208  0.0640
 1897  2210.848  245.13  0.0249  0.1020
 1898  2211.778  243.49  0.0914  0.3168
 1899  2212.708  241.76  0.0998  0.3460
 1900  2213.640  241.82  0.0343  0.1182
 1901  2214.572  243.02  0.0272  0.0981
 1902  2215.505  244.05  0.0339  0.1011
 1903  2216.438  244.36  0.0334  0.1091
 1904  2217.373  243.71  0.0255  0.0885
 1905  2218.308  242.59  0.0577  0.1608
 1906  2219.244  243.01  0.0588  0.1632
 1907  2220.181  245.93  0.0277  0.1030
 1908  2221.118  248.93  0.0349  0.1001
 1909  2222.057  251.20  0.0651  0.1815
 1910  2222.996  254.52  0.0430  0.1380
 1911  2223.936  254.72  0.0717  0.1785
 1912  2224.876  251.21  0.0755  0.2129
 1913  2225.818  248.81  0.0321  0.0829
 1914  2226.760  245.87  0.0312  0.0864
 1915  2227.703  241.96  0.0377  0.1119
 1916  2228.646  239.65  0.0263  0.0756
 1917  2229.591  239.12  0.0283  0.0859
 1918  2230.536  237.83  0.0352  0.0914
 1919  2231.482  236.57  0.0283  0.0859
 1920  2232.429  234.79  0.0277  0.1100
 1921  2233.377  235.23  0.0361  0.1340
 1922  2234.325  235.10  0.0324  0.1084
 1923  2235.275  232.55  0.0333  0.1435
 1924  2236.225  233.87  0.0314  0.1427
 1925  2237.176  233.13  0.0304  0.1174
 1926  2238.127  232.51  0.0259  0.0972
 1927  2239.080  232.33  0.0230  0.0808
 1928  2240.033  233.17  0.0228  0.0700
 1929  2240.987  233.20  0.0246  0.0740
 1930  2241.942  233.46  0.0302  0.1086
 1931  2242.897  232.86  0.0525  0.1974
 1932  2243.854  232.10  0.0206  0.0628
 1933  2244.811  233.16  0.0179  0.0576
 1934  2245.769  233.06  0.0215  0.0728
 1935  2246.727  234.05  0.0209  0.0825
 1936  2247.687  233.10  0.0201  0.0598
 1937  2248.647  233.24  0.0237  0.0669
 1938  2249.608  232.06  0.0236  0.0759
 1939  2250.570  231.37  0.0199  0.0724
 1940  2251.533  229.98  0.0183  0.0735
 1941  2252.497  229.25  0.0166  0.0712
 1942  2253.461  228.82  0.0169  0.0688
 1943  2254.426  228.24  0.0181  0.0648
 1944  2255.392  227.98  0.0155  0.0557
 1945  2256.359  227.58  0.0148  0.0563
 1946  2257.326  226.95  0.0135  0.0516
 1947  2258.295  225.83  0.0148  0.0634
 1948  2259.264  225.09  0.0143  0.0589
 1949  2260.234  224.70  0.0154  0.0699
 1950  2261.205  224.41  0.0145  0.0492
 1951  2262.176  224.28  0.0170  0.0635
 1952  2263.149  224.25  0.0212  0.0802
 1953  2264.122  224.16  0.0226  0.0854
 1954  2265.096  224.06  0.0243  0.1175
 1955  2266.071  223.84  0.0249  0.1244
 1956  2267.047  223.44  0.0284  0.1619
 1957  2268.023  223.50  0.0313  0.1803
 1958  2269.000  223.32  0.0322  0.1878
 1959  2269.979  223.28  0.0379  0.2251
 1960  2270.958  224.11  0.0319  0.1923
 1961  2271.937  224.25  0.0321  0.1955
 1962  2272.918  223.83  0.0388  0.2329
 1963  2273.899  223.69  0.0396  0.2443
 1964  2274.882  224.43  0.0385  0.2200
 1965  2275.865  224.41  0.0399  0.2253
 1966  2276.848  224.02  0.0423  0.2345
 1967  2277.833  224.71  0.0392  0.2057
 1968  2278.819  225.13  0.0414  0.2260
 1969  2279.805  225.84  0.0403  0.2132
 1970  2280.792  226.15  0.0420  0.2139
 1971  2281.780  226.81  0.0482  0.2498
 1972  2282.769  228.28  0.0506  0.2536
 1973  2283.759  228.42  0.0500  0.2369
 1974  2284.749  227.73  0.0472  0.2162
 1975  2285.741  227.25  0.0444  0.1996
 1976  2286.733  227.57  0.0434  0.1818
 1977  2287.726  227.04  0.0433  0.1809
 1978  2288.720  226.89  0.0456  0.1868
 1979  2289.714  227.82  0.0450  0.1585
 1980  2290.710  228.01  0.0442  0.1646
 1981  2291.706  228.17  0.0452  0.1650
 1982  2292.703  228.32  0.0435  0.1568
 1983  2293.701  229.12  0.0409  0.1498
 1984  2294.700  228.92  0.0415  0.1595
 1985  2295.700  229.39  0.0406  0.1531
 1986  2296.701  229.49  0.0391  0.1474
 1987  2297.702  229.57  0.0369  0.1337
 1988  2298.704  229.66  0.0377  0.1306
 1989  2299.707  229.73  0.0360  0.1247
 1990  2300.711  230.19  0.0341  0.1366
 1991  2301.716  230.44  0.0341  0.1456
 1992  2302.722  230.99  0.0330  0.1410
 1993  2303.728  230.55  0.0335  0.1523
 1994  2304.735  230.77  0.0320  0.1789
 1995  2305.744  230.68  0.0303  0.1570
 1996  2306.753  231.76  0.0293  0.1786
 1997  2307.762  232.15  0.0310  0.1929
 1998  2308.773  233.07  0.0304  0.2018
 1999  2309.785  232.94  0.0293  0.1810
 2000  2310.797  233.85  0.0289  0.1523
 2001  2311.811  233.89  0.0295  0.1591
 2002  2312.825  234.61  0.0289  0.1859
 2003  2313.840  234.79  0.0296  0.1934
 2004  2314.856  235.01  0.0261  0.1712
 2005  2315.872  235.00  0.0236  0.1405
 2006  2316.890  235.46  0.0219  0.1070
 2007  2317.908  235.89  0.0210  0.1057
 2008  2318.928  237.15  0.0206  0.1448
 2009  2319.948  237.59  0.0195  0.1388
 2010  2320.969  238.00  0.0173  0.1096
 2011  2321.991  238.61  0.0163  0.1017
 2012  2323.014  239.67  0.0207  0.1463
 2013  2324.037  240.43  0.0221  0.1475
 2014  2325.062  239.46  0.0160  0.0993
 2015  2299.798  229.68  0.0359  0.1245
 2016  2300.703  230.27  0.0336  0.1401
 2017  2301.608  230.16  0.0345  0.1411
 2018  2302.514  231.02  0.0331  0.1445
 2019  2303.421  230.47  0.0342  0.1356
 2020  2304.329  231.04  0.0324  0.1795
 2021  2305.237  230.96  0.0308  0.1784
 2022  2306.146  230.93  0.0296  0.1578
 2023  2307.056  232.09  0.0296  0.1879
 2024  2307.966  231.95  0.0316  0.1895
 2025  2308.877  233.39  0.0300  0.2043
 2026  2309.789  232.71  0.0295  0.1792
 2027  2310.702  233.89  0.0287  0.1540
 2028  2311.615  233.93  0.0298  0.1523
 2029  2312.530  234.23  0.0287  0.1767
 2030  2313.445  235.07  0.0293  0.1969
 2031  2314.361  234.40  0.0280  0.1783
 2032  2315.277  235.42  0.0245  0.1611
 2033  2316.194  234.65  0.0238  0.1295
 2034  2317.112  235.86  0.0212  0.1011
 2035  2318.031  235.62  0.0214  0.1044
 2036  2318.950  237.44  0.0205  0.1469
 2037  2319.871  237.23  0.0199  0.1419
 2038  2320.792  238.21  0.0176  0.1141
 2039  2321.713  238.15  0.0165  0.0989
 2040  2322.636  239.39  0.0173  0.1177
 2041  2323.559  240.47  0.0236  0.1628
 2042  2324.483  240.21  0.0207  0.1267
 2043  2325.408  239.20  0.0133  0.0857
 2044  2326.333  238.70  0.0115  0.0532
 2045  2327.260  239.33  0.0119  0.0576
 2046  2328.187  240.61  0.0119  0.0602
 2047  2329.114  240.87  0.0116  0.0465
 2048  2330.043  240.94  0.0130  0.0500
 2049  2330.972  241.26  0.0137  0.0542
 2050  2331.902  241.73  0.0125  0.0486
 2051  2332.833  241.86  0.0122  0.0468
 2052  2333.765  241.87  0.0143  0.0577
 2053  2334.697  242.16  0.0175  0.0688
 2054  2335.630  243.17  0.0237  0.0930
 2055  2336.564  243.37  0.0231  0.0898
 2056  2337.499  242.09  0.0167  0.0629
 2057  2338.434  242.22  0.0143  0.0543
 2058  2339.370  242.16  0.0142  0.0523
 2059  2340.307  242.19  0.0142  0.0528
 2060  2341.245  241.67  0.0151  0.0611
 2061  2342.183  242.10  0.0168  0.0897
 2062  2343.123  241.96  0.0153  0.0872
 2063  2344.063  241.76  0.0126  0.0519
 2064  2345.003  241.94  0.0133  0.0553
 2065  2345.945  240.67  0.0130  0.0522
 2066  2346.887  240.06  0.0149  0.0561
 2067  2347.831  238.18  0.0193  0.0622
 2068  2348.774  235.81  0.0226  0.0792
 2069  2349.719  237.42  0.0173  0.0617
 2070  2350.665  239.29  0.0144  0.0519
 2071  2351.611  239.91  0.0130  0.0431
 2072  2352.558  240.99  0.0106  0.0364
 2073  2353.506  241.90  0.0105  0.0425
 2074  2354.454  241.95  0.0098  0.0311
 2075  2355.404  243.10  0.0116  0.0412
 2076  2356.354  243.09  0.0124  0.0590
 2077  2357.305  242.32  0.0117  0.0674
 2078  2358.257  243.37  0.0103  0.0524
 2079  2359.209  243.36  0.0098  0.0458
 2080  2360.162  242.38  0.0091  0.0447
 2081  2361.116  243.12  0.0076  0.0356
 2082  2362.071  243.36  0.0076  0.0370
 2083  2363.027  242.31  0.0083  0.0365
 2084  2363.983  241.98  0.0086  0.0354
 2085  2364.941  242.20  0.0089  0.0352
 2086  2365.899  241.79  0.0095  0.0316
 2087  2366.857  240.74  0.0103  0.0383
 2088  2367.817  239.82  0.0106  0.0416
 2089  2368.778  239.75  0.0124  0.0448
 2090  2369.739  239.49  0.0151  0.0534
 2091  2370.701  238.49  0.0157  0.0756
 2092  2371.664  237.18  0.0172  0.1139
 2093  2372.627  236.07  0.0187  0.1377
 2094  2373.592  234.99  0.0168  0.1389
 2095  2374.557  233.88  0.0149  0.1288
 2096  2375.523  232.66  0.0147  0.1328
 2097  2376.490  231.32  0.0178  0.1633
 2098  2377.457  229.89  0.0224  0.2019
 2099  2378.426  228.37  0.0264  0.2303
 2100  2379.395  226.84  0.0321  0.2470
 2101  2380.365  225.47  0.0402  0.2593
 2102  2381.335  224.44  0.0435  0.2442
 2103  2382.307  223.91  0.0450  0.2191
 2104  2383.280  224.13  0.0476  0.2039
 2105  2384.253  225.50  0.0486  0.1460
 2106  2385.227  228.11  0.0469  0.1373
 2107  2386.202  231.77  0.0486  0.1283
 2108  2387.177  236.25  0.0474  0.1251
 2109  2388.154  240.78  0.0451  0.1493
 2110  2389.131  245.21  0.0440  0.1570
 2111  2390.109  249.39  0.0521  0.1751
 2112  2391.088  252.95  0.0560  0.1854
 2113  2392.068  255.43  0.0463  0.1655
 2114  2393.048  257.05  0.0350  0.1439
 2115  2394.030  258.23  0.0310  0.1312
 2116  2395.012  259.07  0.0297  0.1252
 2117  2395.995  259.69  0.0292  0.1241
 2118  2396.979  260.22  0.0286  0.1244
 2119  2397.963  260.79  0.0279  0.1234
 2120  2398.949  261.35  0.0271  0.1215
 2121  2399.935  261.83  0.0264  0.1190
 2122  2400.922  262.24  0.0258  0.1183
 2123  2401.910  262.58  0.0253  0.1161
 2124  2402.899  262.82  0.0248  0.1155
 2125  2403.888  263.02  0.0245  0.1139
 2126  2404.879  263.22  0.0243  0.1118
 2127  2405.870  263.41  0.0242  0.1107
 2128  2406.862  263.55  0.0240  0.1089
 2129  2407.855  263.73  0.0237  0.1089
 2130  2408.849  263.98  0.0232  0.1091
 2131  2409.843  264.15  0.0229  0.1051
 2132  2410.839  264.29  0.0228  0.1046
 2133  2411.835  264.51  0.0225  0.1069
 2134  2412.832  264.70  0.0221  0.1058
 2135  2413.830  264.84  0.0218  0.1051
 2136  2414.828  264.99  0.0216  0.1045
 2137  2415.828  265.15  0.0213  0.1025
 2138  2416.828  265.31  0.0211  0.1015
 2139  2417.830  265.46  0.0208  0.1008
 2140  2418.832  265.61  0.0205  0.1000
 2141  2419.834  265.80  0.0201  0.0979
 2142  2420.838  265.95  0.0198  0.0968
 2143  2421.843  266.08  0.0197  0.0944
 2144  2422.848  266.19  0.0197  0.0937
 2145  2446.194  268.27  0.0159  0.0856
 2146  2447.219  268.33  0.0158  0.0845
 2147  2448.244  268.38  0.0150  0.0785
 2148  2449.270  268.47  0.0149  0.0779
 2149  2450.297  268.52  0.0149  0.0772
 2150  2451.325  268.57  0.0149  0.0750
 2151  2452.354  268.70  0.0145  0.0726
 2152  2453.383  268.91  0.0140  0.0709
 2153  2454.414  269.11  0.0137  0.0701
 2154  2455.445  269.25  0.0135  0.0687
 2155  2456.477  269.41  0.0133  0.0673
 2156  2457.510  269.58  0.0128  0.0666
 2157  2458.544  269.72  0.0123  0.0644
 2158  2459.578  269.85  0.0119  0.0636
 2159  2460.614  270.08  0.0115  0.0623
 2160  2461.650  270.29  0.0113  0.0601
 2161  2462.687  270.33  0.0113  0.0606
 2162  2463.725  270.27  0.0116  0.0604
 2163  2464.764  270.22  0.0116  0.0601
 2164  2465.804  270.17  0.0114  0.0592
 2165  2466.844  270.16  0.0115  0.0592
 2166  2467.886  270.15  0.0115  0.0577
 2167  2468.928  270.14  0.0118  0.0577
 2168  2469.971  270.14  0.0119  0.0577
 2169  2471.015  270.15  0.0119  0.0599
 2170  2472.060  270.10  0.0116  0.0593
 2171  2473.106  270.02  0.0111  0.0590
 2172  2474.153  270.13  0.0103  0.0557
 2173  2475.200  270.35  0.0098  0.0540
 2174  2476.249  270.40  0.0095  0.0531
 2175  2477.298  270.31  0.0092  0.0534
 2176  2478.348  270.46  0.0090  0.0524
 2177  2479.399  270.72  0.0086  0.0492
 2178  2480.451  270.85  0.0083  0.0482
 2179  2481.503  270.98  0.0081  0.0470
 2180  2482.557  271.06  0.0084  0.0469
 2181  2483.611  271.18  0.0083  0.0477
 2182  2484.667  271.32  0.0073  0.0437
 2183  2485.723  271.42  0.0073  0.0412
 2184  2486.780  271.53  0.0074  0.0405
 2185  2487.838  271.65  0.0070  0.0400
 2186  2488.896  271.74  0.0065  0.0386
 2187  2489.956  271.82  0.0064  0.0378
 2188  2491.017  271.89  0.0063  0.0375
 2189  2492.078  271.98  0.0061  0.0362
 2190  2493.141  271.88  0.0061  0.0362
 2191  2494.204  271.67  0.0061  0.0373
 2192  2495.268  271.87  0.0057  0.0343
 2193  2496.333  272.21  0.0056  0.0312
 2194  2497.399  272.31  0.0058  0.0291
 2195  2498.465  272.37  0.0056  0.0292
 2196  2499.533  272.43  0.0054  0.0285
 2197  2500.602  272.50  0.0052  0.0284
 2198  2501.671  272.52  0.0050  0.0255
 2199  2502.741  272.52  0.0051  0.0252
 2200  2503.812  272.52  0.0047  0.0256
 2201  2504.884  272.56  0.0044  0.0238
 2202  2505.957  272.63  0.0043  0.0233
 2203  2507.031  272.68  0.0041  0.0231
 2204  2508.106  272.70  0.0042  0.0236
 2205  2509.182  272.72  0.0042  0.0230
 2206  2510.258  272.68  0.0047  0.0233
 2207  2511.335  272.50  0.0045  0.0224
 2208  2512.414  272.49  0.0041  0.0245
 2209  2513.493  272.66  0.0042  0.0221
 2210  2514.573  272.55  0.0044  0.0196
 2211  2515.654  272.53  0.0042  0.0185
 2212  2516.736  272.77  0.0043  0.0209
 2213  2517.819  272.85  0.0055  0.0332
 2214  2518.903  272.87  0.0050  0.0269
 2215  2519.987  272.91  0.0040  0.0221
 2216  2521.073  272.93  0.0041  0.0241
 2217  2522.159  272.93  0.0048  0.0285
 2218  2523.247  272.91  0.0044  0.0248
 2219  2524.335  272.87  0.0041  0.0225
 2220  2525.424  272.70  0.0040  0.0230
 2221  2526.514  272.68  0.0041  0.0239
 2222  2527.605  272.76  0.0042  0.0243
 2223  2528.697  272.62  0.0048  0.0283
 2224  2529.790  272.54  0.0050  0.0270
 2225  2530.883  272.60  0.0049  0.0272
 2226  2531.978  272.60  0.0057  0.0345
 2227  2533.073  272.43  0.0079  0.0685
 2228  2534.170  272.34  0.0066  0.0534
 2229  2535.267  272.27  0.0052  0.0253
 2230  2536.366  272.02  0.0055  0.0272
 2231  2537.465  271.96  0.0064  0.0370
 2232  2538.565  271.99  0.0081  0.0394
 2233  2539.666  271.91  0.0079  0.0367
 2234  2540.768  271.85  0.0060  0.0322
 2235  2541.871  271.72  0.0056  0.0291
 2236  2542.975  271.53  0.0059  0.0263
 2237  2544.080  271.31  0.0057  0.0292
 2238  2545.185  271.09  0.0062  0.0287
 2239  2546.292  270.90  0.0079  0.0461
 2240  2547.399  270.75  0.0097  0.0779
 2241  2548.508  270.75  0.0051  0.0153
 2242  2549.617  270.76  0.0063  0.0205
 2243  2550.728  270.82  0.0089  0.0364
 2244  2551.839  270.86  0.0040  0.0258
 2245  2552.951  270.81  0.0044  0.0305
 2246  2554.064  270.87  0.0054  0.0238
 2247  2555.178  270.97  0.0122  0.0499
 2248  2556.293  270.81  0.0137  0.0569
 2249  2557.409  270.84  0.0127  0.0536
 2250  2558.526  271.37  0.0093  0.0415
 2251  2559.644  271.71  0.0078  0.0348
 2252  2560.763  271.99  0.0062  0.0256
 2253  2561.882  272.33  0.0028  0.0091
 2254  2563.003  272.56  0.0057  0.0317
 2255  2564.125  272.33  0.0081  0.0513
 2256  2565.247  271.96  0.0060  0.0370
 2257  2566.371  271.72  0.0056  0.0181
 2258  2567.495  271.32  0.0089  0.0393
 2259  2568.620  270.84  0.0121  0.0521
 2260  2569.747  270.45  0.0075  0.0529
 2261  2541.899  271.70  0.0057  0.0294
 2262  2542.904  271.55  0.0059  0.0272
 2263  2543.909  271.37  0.0057  0.0286
 2264  2544.916  271.15  0.0060  0.0298
 2265  2545.923  270.95  0.0073  0.0342
 2266  2546.931  270.76  0.0084  0.0599
 2267  2547.939  270.70  0.0051  0.0152
 2268  2548.949  270.81  0.0054  0.0176
 2269  2549.959  270.81  0.0095  0.0626
 2270  2550.970  270.85  0.0088  0.0338
 2271  2551.983  270.85  0.0045  0.0292
 2272  2552.995  270.77  0.0043  0.0307
 2273  2554.009  270.88  0.0053  0.0231
 2274  2555.024  271.00  0.0067  0.0315
 2275  2556.039  270.88  0.0138  0.0570
 2276  2557.055  270.67  0.0137  0.0577
 2277  2558.072  271.12  0.0106  0.0467
 2278  2559.090  271.63  0.0080  0.0360
 2279  2560.109  271.82  0.0075  0.0332
 2280  2561.128  272.08  0.0062  0.0383
 2281  2562.149  272.42  0.0027  0.0111
 2282  2563.170  272.60  0.0064  0.0341
 2283  2564.192  272.30  0.0085  0.0541
 2284  2565.215  271.97  0.0059  0.0374
 2285  2566.238  271.76  0.0056  0.0211
 2286  2567.263  271.43  0.0085  0.0368
 2287  2568.288  270.99  0.0107  0.0464
 2288  2569.315  270.57  0.0083  0.0430
 2289  2570.342  270.26  0.0091  0.0729
 2290  2571.370  270.26  0.0174  0.0769
 2291  2572.398  270.22  0.0191  0.0772
 2292  2573.428  270.12  0.0248  0.0990
 2293  2574.458  270.19  0.0198  0.0821
 2294  2575.490  270.13  0.0176  0.0780
 2295  2576.522  270.02  0.0158  0.0758
 2296  2577.555  270.01  0.0197  0.0969
 2297  2578.589  269.97  0.0265  0.1341
 2298  2579.624  270.26  0.0155  0.0742
 2299  2580.659  270.49  0.0089  0.0347
 2300  2581.696  270.32  0.0164  0.0693
 2301  2582.733  270.69  0.0117  0.0489
 2302  2583.771  271.19  0.0091  0.0678
 2303  2584.810  271.25  0.0086  0.0290
 2304  2585.850  271.57  0.0104  0.0338
 2305  2586.891  272.06  0.0100  0.0510
 2306  2587.932  272.13  0.0115  0.0940
 2307  2588.975  272.04  0.0111  0.0456
 2308  2590.018  272.12  0.0115  0.0489
 2309  2591.062  272.20  0.0133  0.0452
 2310  2592.107  272.52  0.0120  0.0397
 2311  2593.153  272.38  0.0132  0.0503
 2312  2594.200  272.72  0.0105  0.0399
 2313  2595.247  273.28  0.0027  0.0113
 2314  2596.296  272.99  0.0067  0.0245
 2315  2597.345  272.99  0.0059  0.0229
 2316  2598.395  273.03  0.0047  0.0356
 2317  2599.446  272.75  0.0020  0.0084
 2318  2600.498  272.62  0.0088  0.0324
 2319  2601.551  272.91  0.0073  0.0259
 2320  2602.605  273.34  0.0044  0.0331
 2321  2603.659  273.36  0.0062  0.0502
 2322  2604.715  273.09  0.0061  0.0295
 2323  2605.771  272.62  0.0155  0.0636
 2324  2606.828  271.93  0.0238  0.0981
 2325  2607.886  271.70  0.0300  0.1096
 2326  2608.945  272.80  0.0190  0.0536
 2327  2610.005  273.65  0.0010  0.0036
 2328  2611.066  273.72  0.0015  0.0066
 2329  2612.127  273.29  0.0097  0.0333
 2330  2613.190  273.34  0.0086  0.0294
 2331  2614.253  273.68  0.0045  0.0352
 2332  2615.317  273.79  0.0016  0.0112
 2333  2616.383  273.90  0.0015  0.0110
 2334  2617.448  273.64  0.0024  0.0173
 2335  2618.515  273.26  0.0045  0.0175
 2336  2619.583  272.93  0.0132  0.0416
 2337  2620.652  272.78  0.0184  0.0582
 2338  2621.721  271.66  0.0398  0.1119
 2339  2622.792  271.45  0.0374  0.1079
 2340  2623.863  272.34  0.0181  0.0715
 2341  2624.935  272.37  0.0188  0.0919
 2342  2626.009  273.01  0.0125  0.0509
 2343  2627.083  273.52  0.0037  0.0173
 2344  2628.157  272.91  0.0151  0.0447
 2345  2629.233  273.06  0.0110  0.0356
 2346  2630.310  273.62  0.0047  0.0374
 2347  2631.387  273.65  0.0022  0.0165
 2348  2632.466  273.44  0.0024  0.0149
 2349  2633.545  273.45  0.0036  0.0242
 2350  2634.626  273.09  0.0136  0.0557
 2351  2635.707  272.54  0.0233  0.0880
 2352  2636.789  272.22  0.0258  0.0960
 2353  2637.872  271.27  0.0467  0.1368
 2354  2638.956  271.78  0.0414  0.1235
 2355  2640.041  273.25  0.0084  0.0403
 2356  2641.126  273.13  0.0117  0.0379
 2357  2642.213  272.37  0.0254  0.1218
 2358  2643.301  272.71  0.0184  0.0655
 2359  2644.389  272.84  0.0182  0.0584
 2360  2645.479  273.22  0.0098  0.0369
 2361  2646.569  273.67  0.0039  0.0285
 2362  2647.660  273.62  0.0017  0.0091
 2363  2648.752  272.65  0.0214  0.0868
 2364  2649.845  272.58  0.0226  0.0887
 2365  2650.939  272.81  0.0175  0.0769
 2366  2652.034  272.54  0.0230  0.0936
 2367  2653.129  273.39  0.0070  0.0379
 2368  2654.226  273.32  0.0079  0.0418
 2369  2655.324  272.40  0.0217  0.0903
 2370  2656.422  272.30  0.0221  0.0824
 2371  2657.522  272.74  0.0174  0.0563
 2372  2658.622  272.79  0.0173  0.0677
 2373  2659.723  272.26  0.0264  0.1127
 2374  2660.825  272.74  0.0203  0.0666
 2375  2661.928  273.27  0.0094  0.0488
 2376  2663.033  272.52  0.0241  0.1024
 2377  2664.138  272.67  0.0169  0.0735
 2378  2665.243  272.78  0.0143  0.0577
